acc_x, acc_y, angular_z, stamp, 
-0.06228111981118213, -0.0010878421853204143, 0.00018336408466106363, 112921000000, 
-0.019043123549281976, 0.011423609343463918, 6.7405898627128e-05, 112926000000, 
-0.0591613703482925, 0.002656934885258601, 0.00011928489720877179, 112931000000, 
-0.05439003338590427, -0.003944043286080725, -0.00020562197158671114, 112936000000, 
-0.06796120853111808, -0.02974387372352268, -8.857868001204569e-05, 112941000000, 
-0.05496014240286363, 0.008175952272323575, -0.0002004365233657811, 112946000000, 
-0.05032895941323702, 0.007928659970504287, -0.0001578476132254765, 112951000000, 
-0.06873705671153207, 0.02275404141155848, 2.4434937454767005e-06, 112956000000, 
-0.05370834215066097, 0.018917982541196626, -0.00023091530348850396, 112961000000, 
-0.08595767758364682, -0.004842701137546377, -8.352477668893217e-05, 112966000000, 
-0.036688848504989144, 0.015117694839480552, 0.0003918123395980884, 112971000000, 
-0.04425295773900463, -0.011778903706191383, 4.2550771521461726e-05, 112976000000, 
-0.06497593610206927, 0.01945608805502523, -8.45947637706875e-06, 112981000000, 
-0.050150716727013496, 0.005287326225974708, 4.6041238931977185e-05, 112986000000, 
-0.03681921780522879, 0.01895284158258029, -1.0746433011383934e-05, 112991000000, 
-0.046609954511123056, 0.015748055797243077, 1.7542302972827608e-05, 112996000000, 
-0.0849926443102772, -0.007635244451793386, 0.0003504413354461911, 113001000000, 
-0.05379066350308017, -0.0048342158596521535, -7.337635639898439e-05, 113006000000, 
-0.08330567090371355, -0.01177232993611921, 3.205033032471317e-05, 113011000000, 
-0.04029400487389101, -0.03358155186403815, -0.00020482067514010523, 113019000000, 
-0.04113146450758502, 0.00032698602091056064, 0.00019794889859070283, 113024000000, 
-0.0632162873619675, -0.022303398482550134, 4.8741813484231304e-05, 113029000000, 
-0.08461653743630125, 0.01950667353337563, 0.00028752605071604505, 113034000000, 
-0.024951251349333244, 0.019774117722271722, 0.00018643552198646817, 113039000000, 
-0.05409477972509752, 0.004971811989859424, -0.0005237489705677922, 113044000000, 
-0.04640520431701104, 0.027541159470447336, 0.00011662908334557659, 113049000000, 
5.676404287880796, -0.013905764689114163, -4.936652291569115e-06, 113054000000, 
-0.020157060139628445, 0.01580537708061641, 0.00015136790054372037, 113059000000, 
-0.2183045843944321, 0.021156807627112726, -0.00016294530764146214, 113064000000, 
-0.06407714244462086, -0.006440701890616648, -3.6541773838802636e-05, 113069000000, 
0.05871123058103393, 0.020186699660324624, -5.1275161539309164e-05, 113074000000, 
-0.17711673117796914, 0.023746868757188885, -1.0105922080765555e-06, 113079000000, 
-0.06177608324679618, 0.007851361892515965, 0.0002556088966691152, 113084000000, 
7.05883462016163, 0.02302753725477005, 0.00019479227341478382, 113089000000, 
-0.2486261887174985, -0.03040163596334311, -0.00042180820129212736, 113094000000, 
-0.13342086884945298, 0.01572222879775324, 0.0005332460538151835, 113099000000, 
-0.08275579446513555, -0.023366449704743452, -5.266902642896588e-06, 113104000000, 
0.018975235271116137, 0.0024562814027609837, -1.4150736464833709e-05, 113109000000, 
-0.1466512915321415, -0.02784205044260613, -7.519578342454978e-05, 113114000000, 
-0.044712920878465824, -0.014406803279586343, 9.604755528933418e-05, 113119000000, 
8.709104367401833, -0.0074824020384274045, 0.00022179339586716882, 113124000000, 
-0.1798602206342884, -0.0006120206648061531, 0.0002184077041601992, 113129000000, 
-0.063430950545894, 0.0228227664915315, -0.0001118860659175102, 113134000000, 
-0.046907310529338365, -0.026654017400152576, 0.00018519068109098294, 113139000000, 
-0.06336885277383074, 0.027279899895403643, 0.0002271043159473795, 113144000000, 
-0.03996701224496918, 0.03222272078297804, 2.8621603812897386e-05, 113149000000, 
6.747140796789148, 0.014044914828701165, 7.597597857205128e-05, 113154000000, 
0.09988553599947331, 0.008735351910672012, 0.0002830382424488886, 113159000000, 
-0.15174969099774804, -0.01182377476810275, 0.0002827993367378212, 113164000000, 
-0.08706822505738368, -0.023249960615934366, 1.3529856983970975e-05, 113169000000, 
-0.07754580126341583, 0.025641461674515677, 4.166570792927444e-05, 113174000000, 
-0.04898160681675337, -0.030216195475075137, -0.00024977299957070707, 113179000000, 
-0.06460498382105014, 0.008030143519149806, 0.0001767358746121527, 113184000000, 
-0.04864789615076858, -0.013264839666714573, 5.497605803007854e-05, 113189000000, 
4.89037522606041, -0.02671149599442929, 0.0002909893975593485, 113194000000, 
-0.11780321228624972, 0.00417450542530798, -1.7494447503727426e-05, 113199000000, 
-0.060007987405626205, 0.00440112339963924, 0.00014254859059492273, 113204000000, 
-0.07776410702002769, 0.009938311142898053, 0.000312572167113034, 113209000000, 
-0.029464119362980986, -0.03168039500296468, -0.00029296702100378144, 113214000000, 
-0.05470222825315213, -0.0019276979298155777, 9.614830442811735e-05, 113219000000, 
6.947142152180926, 0.037390906239082554, -1.323610762305999e-05, 113224000000, 
-0.15652910829843186, -0.006835882019166267, -5.0053036101887095e-05, 113229000000, 
-0.11387328462997179, -0.017450361202264158, -0.00015997205558746798, 113234000000, 
-0.06967556120533731, 0.0006669021303433402, -0.00022163798009887652, 113239000000, 
-0.034109137495072814, -0.005852846480713131, -0.0004036017816227711, 113244000000, 
-0.07045283750582682, 0.011785556863073105, -6.828538863360325e-05, 113250000000, 
-0.03912234248211989, -0.006607720124141648, 0.0001178441181969475, 113255000000, 
6.904909483360914, -0.015125194992425537, 0.0004198833465523606, 113260000000, 
-0.1442044111854035, 0.013435653015267836, -0.00023224577924148474, 113265000000, 
-0.054813683904390495, -0.025083373177132297, 0.0001875698982081217, 113271000000, 
-0.036356214868297, -0.03589417866806162, -5.620453416051238e-05, 113276000000, 
-0.03768052009057135, -0.02784477518552905, -0.00016289050687742258, 113281000000, 
-0.0529903706592621, -0.018762736187457402, -6.085596343163588e-05, 113286000000, 
5.593230691389117, 0.0012956746482244473, 6.614456724544611e-05, 113291000000, 
0.04246428745520878, 0.01586291408234888, -0.00030180544336506145, 113296000000, 
-0.11596763005441993, 0.006540439001006088, -1.5300140148696914e-05, 113301000000, 
-0.030109145299754076, 0.010256419880635336, 1.2839521261491355e-05, 113306000000, 
-0.04596628412135697, -0.007374938898605915, 0.000508719943261109, 113311000000, 
-0.045685773912003576, -0.009000915793352254, 0.00014111639583170123, 113316000000, 
-0.021268418201014744, -0.021647773925451242, 0.0002638889977478969, 113321000000, 
6.947668123510776, 0.01857696186130066, -0.00012442071730956003, 113326000000, 
-0.1195920671525683, 0.03423332769141441, 3.0814837487262706e-06, 113331000000, 
-0.10401806182699122, 0.005816889787454978, -0.0004609004836830831, 113336000000, 
-0.05054131828044788, -0.042687113473609664, 7.0907671420624276e-06, 113341000000, 
-0.028485581053923247, 0.02050094334150402, 0.00017518276375181563, 113346000000, 
-0.0481452314984465, -0.0253614634157296, -3.248252851281518e-05, 113351000000, 
-0.024469877170994397, -0.0019758615260846964, -7.326961100317416e-05, 113356000000, 
6.954838090384856, -0.0337201680234618, 0.00019518865263650135, 113361000000, 
-0.14446067197844606, -0.020027738456754044, -0.0002470518908019812, 113367000000, 
-0.0658015288850149, 0.006541510563426629, 0.00023214097348949847, 113372000000, 
-0.015895970574096672, -0.005818931266870865, 0.00025144391151874965, 113377000000, 
-0.013989921378619619, 0.005727901871851624, -9.818536267877817e-05, 113382000000, 
-0.03439840897836386, -0.02408865632790087, -3.276068468215969e-05, 113387000000, 
5.666726683704754, -0.013756512333474812, 0.0003206335224655297, 113392000000, 
1.247921039545105, 0.012387231923780679, -0.00023638896011029994, 113397000000, 
-0.1213876511317804, 0.03115281066143835, -0.0005030423717753932, 113402000000, 
-0.054054645685597605, 0.00799740782307477, -3.8614344041274094e-05, 113407000000, 
0.013831909200167865, 0.002712129846948531, 0.00016332374163485078, 113412000000, 
-0.016880649497820283, -0.009266427376571245, -2.6175560345900735e-05, 113417000000, 
-0.008952553578674676, -0.00849280599603815, -0.00020533979815162616, 113422000000, 
5.675524004977387, 0.00784955101248392, -0.00043567208290628927, 113427000000, 
0.26366948007397206, 0.006546005576476187, -0.0002560894267495627, 113432000000, 
-0.1000572637305951, 0.02009063127564528, -0.00014970017360991318, 113437000000, 
-0.017703829680494332, 0.0010298529869545196, -0.00010529614151943017, 113442000000, 
-0.004113680129035572, 0.014220260747508299, 2.2438292226577156e-05, 113447000000, 
-0.02763713697284664, 0.0030667586159519853, 5.636773196248603e-05, 113452000000, 
-0.014759584524262686, 0.015419947182863996, 0.00012029382828700228, 113457000000, 
4.73229296317813, -0.01636284787543469, 0.0063759379486146624, 113462000000, 
-0.11157404776797836, 0.019925231569506888, 0.022826127923803504, 113467000000, 
-0.06903165736727113, 0.029215323006992516, 0.04095346702236713, 113472000000, 
-0.06111165811613051, 0.053504556427441605, 0.07262178833316862, 113477000000, 
-0.029029917824526894, 0.03513985664562431, 0.08964442788960791, 113482000000, 
-0.010868423826554575, 0.07815951297538712, 0.11837579315627313, 113487000000, 
1.544157822261675, 0.06690192749145699, 0.1856057101780921, 113497000000, 
-0.11769290485779019, 0.13536910217221995, 0.2416245568449715, 113502000000, 
-0.0010998655567024396, 0.13609432980064065, 0.28171626242505665, 113507000000, 
-0.01409987699375374, 0.1166178466703629, 0.3331279378893042, 113512000000, 
-0.001661126331033995, 0.14522377863211372, 0.3897851932506352, 113517000000, 
-0.02025333225174763, 0.16410570018570722, 0.43028854130146954, 113522000000, 
0.03866959835041442, 0.17773846441334515, 0.4507750724137267, 113527000000, 
2.468741136611755, 0.18831924153520463, 0.5044126297135595, 113532000000, 
-0.05638263758807375, 0.22511113401362476, 0.5468154154000037, 113537000000, 
-0.011092762738127409, 0.23820272952411153, 0.5865165972362327, 113542000000, 
0.008705721208783542, 0.28454017120504527, 0.6154665726925849, 113547000000, 
0.02935172137433937, 0.28604224412487667, 0.6456728579512677, 113552000000, 
0.06686186116304338, 0.3005035335822758, 0.6720505351071904, 113557000000, 
-0.013729855510657637, 0.29006026245404354, 0.6824297273718329, 113562000000, 
2.9204757537915174, 0.30594005781187655, 0.7118901035177789, 113567000000, 
-0.07121915991308231, 0.34094462643876183, 0.7386155415678785, 113572000000, 
-0.009127071900638566, 0.3745423860809488, 0.7605731459413398, 113577000000, 
0.00999537399481024, 0.3922109721899931, 0.786638081675032, 113582000000, 
0.02817266850263018, 0.37967685650989186, 0.7918936961772075, 113587000000, 
0.014489898660526152, 0.38950775595507986, 0.8294194283133871, 113592000000, 
0.0028143232499071476, 0.42886426312998266, 0.832729836095855, 113597000000, 
1.7350962485340435, 0.411437284061746, 0.8830303622952718, 113602000000, 
-0.033847072304187625, 0.4424371518567197, 0.9190625024911471, 113607000000, 
0.028791269513206683, 0.4541632896352202, 0.9489332831348349, 113612000000, 
0.0005090302830017737, 0.49180245333813566, 0.986017102774685, 113617000000, 
0.031864287093343366, 0.5307622285302109, 1.0197124164909637, 113622000000, 
0.025878042496368756, 0.5321724104623132, 1.053841439065706, 113627000000, 
0.03408817377580816, 0.5444887008412679, 1.0636529108768185, 113632000000, 
0.17089131075288416, 0.5274068969661271, 1.09082438135653, 113637000000, 
0.04142510641894909, 0.49861813694500234, 1.0980707975798751, 113642000000, 
0.037953647353677324, 0.5430748974969488, 1.10033639783333, 113647000000, 
0.038397476168197636, 0.49951282510367756, 1.0963167996978342, 113652000000, 
0.08063411793983166, 0.5085467565757612, 1.0841038109280903, 113657000000, 
0.02319882320344995, 0.507920859107894, 1.0755691160735472, 113662000000, 
0.03445364626422661, 0.5056257793411579, 1.0504904377812525, 113667000000, 
0.030223073063958127, 0.48804691656674837, 1.0347281485223903, 113672000000, 
0.03776750799345744, 0.46513427771234594, 1.010793778468273, 113677000000, 
0.03244299667330948, 0.4386437789490109, 0.991070085079998, 113682000000, 
0.0639461388577223, 0.4599084555444982, 0.9812689613984186, 113687000000, 
0.05847813781743835, 0.5014832372752005, 0.9508329536107689, 113697000000, 
0.04923500815844525, 0.4713428858730346, 0.9449444142997392, 113702000000, 
0.04319452058525379, 0.5135856455502419, 0.9425717676750194, 113707000000, 
0.04305062550990285, 0.46990970083331063, 0.9444856633218756, 113712000000, 
0.052442761131475, 0.4879711030749364, 0.9495055456617104, 113717000000, 
0.01718160587093666, 0.45298475350928896, 0.9555970766964177, 113722000000, 
0.061600571323896014, 0.4790422801905329, 0.9676385812870527, 113727000000, 
0.06464660345735027, 0.4761192672597917, 0.9761638535654884, 113732000000, 
-0.021153481482276262, 0.4741553573779384, 0.9884731522056467, 113737000000, 
0.10545526667075517, 0.5343646436123046, 1.0017306442265526, 113742000000, 
0.06832174920795013, 0.5052301407081904, 1.011891587654553, 113747000000, 
0.037284989960192166, 0.5104666439431325, 1.0190680092485684, 113752000000, 
0.07418873178694982, 0.5280262542009075, 1.0273158139525518, 113757000000, 
0.04721715176221192, 0.5029607108596478, 1.0307762663362285, 113762000000, 
0.06273888347990808, 0.5231781647900315, 1.0331224137299346, 113772000000, 
0.00816151139401388, 0.5133876777709551, 1.0302356840087983, 113777000000, 
0.07244371174361991, 0.5408990438888586, 1.0261433991770528, 113782000000, 
0.04313544343290172, 0.49619724633522916, 1.0204846952771107, 113787000000, 
0.01713766995417109, 0.5135487351763417, 1.0135614356495566, 113793000000, 
0.05617957800667766, 0.5060440579648249, 1.0056298127336667, 113798000000, 
0.07667941007742467, 0.503786227926184, 0.9985304202038094, 113803000000, 
0.07410859626362358, 0.5046067256399696, 0.9923851119706927, 113808000000, 
0.07084459834411216, 0.49476423136118497, 0.9872122539943785, 113813000000, 
0.045735903804307226, 0.5244967159857935, 0.9838447740729085, 113818000000, 
0.0602984469745657, 0.5132666051449188, 0.9807231415553965, 113823000000, 
0.06682853643822982, 0.48316367126119664, 0.9792408698754846, 113828000000, 
0.08616572275369251, 0.45625655951937144, 0.9798527400284478, 113833000000, 
0.06106154172799101, 0.5250597391456674, 0.9810872932747352, 113838000000, 
0.052499728433075196, 0.4742935442007276, 0.9830725307939079, 113843000000, 
0.06947298959576263, 0.5390453724359184, 0.9871243452560821, 113848000000, 
0.031207035278525003, 0.51521808719701, 0.9910345644192506, 113853000000, 
0.07569191458327648, 0.49321864788322073, 0.9945112499798113, 113858000000, 
0.06915799110062282, 0.5145593754317457, 0.9982535345108074, 113863000000, 
0.029840772178835545, 0.5084612755891303, 1.0023914048489768, 113868000000, 
0.06157783470146219, 0.48396900456902003, 1.006104525826062, 113873000000, 
0.026827817382711887, 0.5207218859398712, 1.0082210265960125, 113878000000, 
0.07532628669017953, 0.5325977645882306, 1.0107339807548203, 113883000000, 
0.0782926829001229, 0.5140019783570542, 1.0114337099974666, 113888000000, 
0.09404637758892713, 0.550991195090038, 1.0112866271383183, 113893000000, 
0.08655509810209706, 0.509772169504347, 1.0113109311206987, 113898000000, 
0.06942552702160103, 0.5403076387964852, 1.0097776964013634, 113903000000, 
0.0898386824435298, 0.5126531236033809, 1.0081011772312471, 113908000000, 
0.09707354772085967, 0.5209359213610258, 1.0058365145041805, 113913000000, 
0.07318466971336474, 0.5500366280511124, 1.0029634809909898, 113918000000, 
0.04687429822532703, 0.4975477584255467, 1.000794744161895, 113923000000, 
0.06652923379355485, 0.5011792629757883, 0.9982282179010243, 113928000000, 
0.1015062150743051, 0.530105353733433, 0.9959252080383793, 113933000000, 
0.10289312143287463, 0.5158823546345935, 0.9940231751780711, 113938000000, 
0.07188928641075559, 0.5285103029090601, 0.9928760905394391, 113943000000, 
0.0805110158530469, 0.523442630768441, 0.9922725039676237, 113948000000, 
0.09832240710586217, 0.5274390380859851, 0.992067491399486, 113953000000, 
0.060021078320263155, 0.5043769131848486, 0.9922459458699171, 113958000000, 
0.07018644990289861, 0.5060433151279965, 0.9929732803619362, 113963000000, 
0.0834749645323245, 0.5094845902846858, 0.9936015012301855, 113968000000, 
0.07279832507028394, 0.48379595817932847, 0.9950144098940042, 113973000000, 
0.11743598765480019, 0.5146476893618277, 0.9969457659255258, 113978000000, 
0.07365914109770186, 0.5115068924757563, 0.9980069312392579, 113983000000, 
0.10677597025087149, 0.47626490361765456, 0.9996060905555337, 113988000000, 
0.11895551289077075, 0.507849586467008, 1.0003840686080765, 113993000000, 
0.08994997920411715, 0.4908865693240704, 1.0020213669257432, 113998000000, 
0.08719944918890807, 0.5521451796258479, 1.0024940078634503, 114003000000, 
0.10458785717983932, 0.5509495279209459, 1.0033508562323041, 114008000000, 
0.08816343556714314, 0.5027350909431703, 1.00332305134879, 114013000000, 
0.07810361164874607, 0.5460277898568543, 1.0034728507203001, 114018000000, 
0.08097135829889758, 0.5133486571547505, 1.0033781362642613, 114023000000, 
0.08762434144250089, 0.514129729644266, 1.0027714097827891, 114028000000, 
0.09344507846744535, 0.5128125656502518, 1.0023834815879757, 114033000000, 
0.06008165141074124, 0.5415636225075348, 1.001393057696736, 114038000000, 
0.08635428350749748, 0.5227846439719945, 1.0001872098083906, 114043000000, 
0.08654639549349369, 0.5262118119254384, 0.9994858825785685, 114048000000, 
0.09423506973904396, 0.5327918456791075, 0.9989629713419929, 114053000000, 
0.09174093386897055, 0.5087033290481006, 0.9981287270323939, 114058000000, 
0.07812018996727584, 0.5417727354043618, 0.9975285683898961, 114063000000, 
0.09894808868539857, 0.5236814313043724, 0.9971658933985023, 114068000000, 
0.10444092743844782, 0.5191640448843561, 0.9964320682096488, 114073000000, 
0.07975680652894107, 0.5353294351129012, 0.9967191900563888, 114078000000, 
0.09003521942901309, 0.5446967380620976, 0.9970225889776024, 114083000000, 
0.11869322235555528, 0.49858152949611684, 0.9970893330430143, 114088000000, 
0.09176166900444381, 0.5081729821747871, 0.9974426689163308, 114093000000, 
0.09160478363883999, 0.5392336642492916, 0.9980812772919927, 114098000000, 
0.08356513269281782, 0.5308026453492507, 0.9987554551949951, 114103000000, 
0.09713981832108957, 0.5421560856513222, 0.9988349450789209, 114108000000, 
0.052773809845983954, 0.5226503525516041, 0.9995879230702537, 114113000000, 
0.08621546406520106, 0.5371922473552856, 0.9994801009051951, 114118000000, 
0.09743634415783915, 0.5263594904730861, 1.0006795689593861, 114123000000, 
0.09806036938959513, 0.5359486609932161, 1.0005904330097164, 114128000000, 
0.10765791655648459, 0.5655903405823016, 1.0008327802102015, 114133000000, 
0.0865993311000589, 0.5325566111741188, 1.000142722674859, 114138000000, 
0.09853218215944963, 0.5517865214866183, 1.0004034321438935, 114143000000, 
0.0698410520505911, 0.5140420452559542, 1.00015489209951, 114148000000, 
0.09997970559032744, 0.5219505258235606, 1.000022793723663, 114153000000, 
0.08661601730489467, 0.5203079271414688, 0.9995887709115694, 114158000000, 
0.04986056467933744, 0.5821500847753988, 0.9991841048698473, 114163000000, 
0.1077414320230638, 0.5412781351074659, 0.9990995872623761, 114168000000, 
-0.04402698014754393, 0.5684635945309615, 0.9993279482729385, 114173000000, 
-0.043377573871629584, 0.6360040707359454, 1.0017990561724899, 114178000000, 
-0.05516795886080178, 0.5738158703387121, 1.0066853189640494, 114183000000, 
0.0009276129034044844, 0.5759351185303371, 1.0134649619722682, 114188000000, 
0.011520050622585744, 0.5675342216086694, 1.0214873399058406, 114193000000, 
0.03293937357687284, 0.5671093210590777, 1.030496676050686, 114198000000, 
0.1002167918534016, 0.5724353614179187, 1.0393991410637657, 114203000000, 
0.08463456527198501, 0.5716525999093717, 1.0477402195486942, 114208000000, 
0.09294780325781603, 0.5554345966683352, 1.0552548190371298, 114213000000, 
0.12853484149368538, 0.599145692751213, 1.0614229389376593, 114218000000, 
0.16594512482162457, 0.5923970028565496, 1.065870513470422, 114223000000, 
0.16775955559898897, 0.5677306711163673, 1.0686647151438968, 114228000000, 
0.1586642285725585, 0.5836102108956982, 1.0698936682453588, 114233000000, 
0.1598554840831389, 0.6119930232660982, 1.0696795670211643, 114238000000, 
0.16560749690851975, 0.5740115364997557, 1.0674531989790021, 114243000000, 
0.181334525114867, 0.5638932694370751, 1.0639024155660113, 114248000000, 
0.16013587994390532, 0.6163594696984004, 1.059324456776043, 114253000000, 
0.1428725641183943, 0.5903079059748713, 1.0558851388936104, 114258000000, 
0.123828977157898, 0.5948612799249617, 1.04955346969804, 114263000000, 
0.010724677077086613, 0.3152761053807217, 1.045857386557288, 114268000000, 
0.11268172867976876, 0.4928058638330918, 1.0428369531997839, 114273000000, 
0.11792453711578701, 0.5939102177382826, 1.0386978373653923, 114278000000, 
0.12033049826820355, 0.6034017716087381, 1.0361928098017028, 114283000000, 
0.0989979546018588, 0.5765318034524162, 1.0345463559869368, 114288000000, 
0.08087713119577672, 0.5595069959779274, 1.0315581164087948, 114293000000, 
0.06805082884769945, 0.5744017860259678, 1.0290002344469922, 114298000000, 
0.08990894249892113, 0.5820249532162485, 1.0267012942679536, 114303000000, 
0.0808806653400854, 0.5899691892994238, 1.0244465251783317, 114308000000, 
0.08083110848492786, 0.539114676692709, 1.023490006262256, 114313000000, 
0.09269706114576445, 0.5524767210426847, 1.0216262146238424, 114318000000, 
0.1067174406898687, 0.6004129137623987, 1.0193022688462912, 114323000000, 
0.06850793093643057, 0.5658797872507658, 1.018198585899808, 114328000000, 
0.07819269003455032, 0.5698505079284302, 1.0166605100520572, 114333000000, 
0.05939443563665371, 0.5731078931886401, 1.0154118309239808, 114338000000, 
0.08652168005098236, 0.5638386730188009, 1.0135273760734838, 114343000000, 
0.07675400370702207, 0.5374122271419629, 1.012819048935192, 114348000000, 
0.09522544421427753, 0.5487802524068263, 1.0114195780975843, 114353000000, 
0.10248685340028699, 0.5823178039589035, 1.0104253109727486, 114358000000, 
0.09073990633321985, 0.5303487708306784, 1.0089694220562109, 114363000000, 
0.08483947410078681, 0.5708998345843713, 1.00801498933925, 114368000000, 
0.07802928351675173, 0.5595274401473527, 1.0065144475641252, 114373000000, 
0.08612030857176099, 0.5627978543093443, 1.005697448875114, 114378000000, 
-10.48091772836103, 2.1882997727446605, 1.0242530783892567, 114383000000, 
-23.5776494242576, 1.9592200644691684, 1.0359298542042112, 114388000000, 
-17.379331602330033, 1.6685994454163064, 1.0446207749278418, 114393000000, 
-12.375906000945728, 1.1736578993599538, 1.0507578699771987, 114398000000, 
-9.066341367729876, 0.8711359184511602, 1.0550290527734318, 114403000000, 
-2.8611198799166346, -3.7587170508427783, 1.0552985494570428, 114408000000, 
-0.8134879847335278, -4.3113613297611275, 1.0549014800999623, 114413000000, 
-1.3512022653336968, -2.11731364734967, 1.0550099799286337, 114418000000, 
-1.185418753058219, -1.0137094794723907, 1.0549438000448366, 114423000000, 
-0.8554113160620483, -0.6008330431525984, 1.0553846591654559, 114428000000, 
-0.5609581180820932, -0.3994841710139035, 1.0557574553016318, 114433000000, 
-0.3874082588811046, -0.217893279069565, 1.0562109046780725, 114438000000, 
78.27038820637634, 8.62985954281191, 1.1065514606973967, 114443000000, 
10.248499257255352, 0.0876900473079145, 1.144350904640013, 114448000000, 
-14.223005208312946, 2.8149154662657896, 1.1697110978340797, 114453000000, 
-25.607590938965366, 4.2137375809837225, 1.1829843485300215, 114458000000, 
-18.882985925648878, 3.164149852234779, 1.1903542218467627, 114463000000, 
-13.481542600539997, 2.277203780353898, 1.1989198721314092, 114468000000, 
-6.565095166305284, -2.153908575248534, 1.2012230620749231, 114473000000, 
-1.070809243168324, -6.663054435190565, 1.2001568387468848, 114478000000, 
-0.8150434444148, -4.664914340678338, 1.1994863851982196, 114483000000, 
-1.3492803659048662, -2.040838203377504, 1.200002424631206, 114488000000, 
-1.2873623081849062, -0.8714902897903525, 1.1996497930562862, 114493000000, 
-0.9958103923109296, -0.3125391914762174, 1.2001506897891647, 114498000000, 
-0.6501859984356242, -0.23698881887631915, 1.2002726082262947, 114503000000, 
-0.36581084941783915, -0.21388409765935, 1.2007433483319174, 114508000000, 
-0.24204570673230025, -0.0754215406440697, 1.2006451863678662, 114513000000, 
-0.1552328588626293, -0.023364971633479333, 1.200525216470772, 114518000000, 
-0.1035553988277192, -0.00027773244321884893, 1.200708443503495, 114523000000, 
80.44547151705197, 11.575341258968715, 1.258376976518106, 114528000000, 
4.3848234722551815, -2.5681871271291334, 1.2948463791025526, 114533000000, 
-85.15374640413089, -7.546235362876879, 1.4515453224017814, 114538000000, 
37.74972435375661, 4.53369978670217, 1.6077387972964567, 114543000000, 
22.342441410670492, 3.6916297615569906, 1.755144492613813, 114548000000, 
6.433478366385556, 3.6465493703833807, 1.8519452495380104, 114553000000, 
-57.832721087671175, -13.254670222523607, 1.9914901576851367, 114558000000, 
22.15774890580653, 3.845718315986089, 2.0708697657157558, 114563000000, 
1.164140299727047, 1.4358264652981259, 2.1379643179276315, 114568000000, 
-20.350288992166597, -4.351450065154508, 2.166940839593701, 114573000000, 
-0.008132044672159298, -0.004144036720380679, 2.1666175341444887, 114578000000, 
43.07833663463112, 16.48308112851721, 2.1947185945968317, 114583000000, 
-0.21189378761476907, -0.4304307598663801, 2.255715074115902, 114588000000, 
-38.63117901854613, -13.867644760308782, 2.3316138386532024, 114593000000, 
17.59035587586506, 7.044360861618213, 2.3858120320715397, 114598000000, 
-15.181060106955385, -6.28382958494758, 2.4508837177546323, 114603000000, 
15.505040114589208, 9.747873148562924, 2.5115437796695743, 114608000000, 
-12.175826439945094, -9.091807802774783, 2.623341074342695, 114613000000, 
24.466991684796124, 19.239939130419256, 2.7138044262850185, 114618000000, 
-20.887656373894295, -18.403331203344692, 2.8070328878667765, 114623000000, 
33.10362460499655, 29.36612800373015, 2.9078544502345607, 114628000000, 
-28.830470159718704, -28.659577305798926, 3.035163406795781, 114633000000, 
37.85928219368719, 44.38438250172508, 3.1483270864626776, 114638000000, 
-33.537890959587024, -44.35766080726789, 3.2572408039530467, 114643000000, 
30.015403258462005, 51.906315747666795, 3.344904530359359, 114648000000, 
-26.22777098789208, -51.00457321162379, 3.444580964606517, 114653000000, 
31.340809290007762, 55.55320231115335, 3.5333056701989025, 114658000000, 
-29.34704925425921, -46.96429187001123, 3.6223926675442724, 114663000000, 
28.481967901105982, 57.1889779436771, 3.706291201670688, 114668000000, 
-27.66203315817282, -39.84904168660082, 3.794415691866844, 114673000000, 
28.15042303584407, 37.42253128992242, 3.873927813008135, 114678000000, 
0.05812781320225336, -3.039571967385229, 3.9372661551436208, 114683000000, 
-40.97022659812058, -43.87183996948957, 3.9818819405169106, 114688000000, 
2.5286493245571946, -1.933241929182384, 4.072360348277378, 114693000000, 
12.320937000975901, 13.140563047237183, 4.110682653605239, 114698000000, 
0.08413961729014469, 0.22135717588606385, 4.122577502277407, 114703000000, 
-5.020058431159094, -4.6323447883629525, 4.1180843763698745, 114708000000, 
-1.607917240523554, -0.5540015229954366, 4.114314763207855, 114713000000, 
-35.248943752283914, 41.73422896877748, 4.084295433783502, 114718000000, 
-40.24464389642999, -53.81394971772562, 4.0620413997635145, 114723000000, 
-36.104585903412385, 28.045093898650578, 4.003270198683533, 114728000000, 
0.32461512158539857, 11.004583530102204, 3.999089954465572, 114733000000, 
-0.28161242491972643, 3.747332512213811, 3.9962161183585154, 114738000000, 
8.610200107723436, -3.4681693812664447, 3.9989989406371595, 114743000000, 
-5.047940376836852, 20.24533489460535, 3.9862056858834864, 114748000000, 
0.5879188477509676, -0.7625352464814048, 3.9862920297224673, 114753000000, 
-2.406917281344132, 17.39910968323521, 3.976035893231523, 114758000000, 
1.6113370404132576, 12.697469735327298, 3.9695804491607403, 114763000000, 
0.3457655045494414, 2.9868249621668554, 3.968207956814532, 114768000000, 
0.14093223127132223, -0.4072072366754361, 3.9684274276775096, 114773000000, 
-0.8313154256330549, -0.5001908366623095, 3.9684454018171427, 114778000000, 
-0.3870059403135786, -0.3492988671307343, 3.9683500397529388, 114783000000, 
-0.36556179168090935, -0.409680684804297, 3.969098987453213, 114793000000, 
-0.25943197237638593, -0.41338893418828043, 3.969858375306685, 114803000000, 
-0.18877593997877046, -0.33282548220923175, 3.9702490793918965, 114808000000, 
-0.08612728154986285, -0.49179835187734855, 3.97076640078146, 114813000000, 
-0.1612802993626319, -0.30408567927461905, 3.9713424790928253, 114818000000, 
-0.18380339000452153, -0.5425247643845996, 3.971763518599152, 114823000000, 
-0.08896926504247793, -0.31820213517098156, 3.971947881720032, 114828000000, 
0.07830909157448135, -0.47217004000044954, 3.972606044695692, 114833000000, 
-0.05580155460145495, -0.3267333416781454, 3.9727127229173425, 114838000000, 
-0.011200048647189834, -0.5378510329126399, 3.9735079594026232, 114843000000, 
0.0024833168719426892, -0.34990451822475227, 3.973738986042843, 114848000000, 
0.18281319364523288, -0.5005543797610821, 3.9745250933259255, 114853000000, 
0.04672140127127217, -0.39916394986987275, 3.974684680941272, 114858000000, 
0.14136544023994838, -0.5717494192815424, 3.975258360646211, 114863000000, 
0.06932445877010414, -0.4071094525751325, 3.9753990257038687, 114868000000, 
0.2832852438090106, -0.47192646885674666, 3.975622564148721, 114873000000, 
0.1645291232058459, -0.4921637476102581, 3.976039631284508, 114878000000, 
0.2601094410694821, -0.5312566053661351, 3.976075061393902, 114883000000, 
0.1831438088799973, -0.5140311066399933, 3.9761338521974627, 114888000000, 
0.3818704208878237, -0.49098103577941093, 3.97611893261398, 114893000000, 
0.2027965154691059, -0.5316961537863296, 3.9763762983460498, 114898000000, 
0.3741076692403724, -0.5605052556741784, 3.9767999104365677, 114903000000, 
0.29401786849964384, -0.5617224499209963, 3.9764745946106355, 114908000000, 
0.48080635634847096, -0.5299538469407091, 3.976472811348884, 114913000000, 
0.30486732199000594, -0.6061065743134982, 3.97648937647701, 114918000000, 
0.540766700573051, -0.5869101939092046, 3.977046965178649, 114923000000, 
0.32426573919641605, -0.6653998833350656, 3.976702079590043, 114928000000, 
0.5725060419510012, -0.5759223244956484, 3.9771286545590065, 114933000000, 
0.4001925719413821, -0.7048216455363653, 3.977331502454685, 114938000000, 
0.5773007870707163, -0.6254431806249365, 3.9770669256917177, 114943000000, 
0.3345650717916755, -0.8571849541107961, 3.9772872814609603, 114948000000, 
0.6441376450293342, -0.5136489158118324, 3.977670526574115, 114953000000, 
0.5113864324134195, -1.013954210734755, 3.978137113799502, 114958000000, 
0.7359827029812922, -0.6697810862131031, 3.9787037806614487, 114963000000, 
0.3947537057894579, -0.7048704573255379, 3.978538853045608, 114968000000, 
0.5336702068965381, -0.7993037860027218, 3.9787077255071845, 114973000000, 
0.9984965456364814, -0.55054657892964, 3.97975260348982, 114978000000, 
-0.46184085100626715, -2.464029007110702, 3.9808537363272745, 114983000000, 
1.84398027198729, 0.7018602355451912, 3.9808391043657023, 114988000000, 
-0.6107991150523512, -2.6233618578203775, 3.982182034023967, 114993000000, 
-0.21752294192783303, -3.835525559000877, 3.983825037735317, 114998000000, 
2.6600841758669724, 3.043762448160043, 3.9831453256944984, 115003000000, 
2.1497926573913975, -2.5659494068568316, 3.9845328024263678, 115008000000, 
-0.05268722864513605, 1.6055457674928284, 3.982007791989261, 115013000000, 
2.665890713363959, -1.0346513950456582, 3.9828505674096872, 115018000000, 
4.098584259900038, -1.9778650823736659, 3.984304372573459, 115023000000, 
2.9746802817363496, -3.535943739755041, 3.9856049662386286, 115028000000, 
1.7283051201745745, -4.821952752638833, 3.986448010128178, 115033000000, 
-3.849481018521223, 3.3235429521234487, 3.9808307472896893, 115038000000, 
4.379089882763168, -2.217261313730254, 3.9815774171413523, 115043000000, 
4.61755095529682, -3.404083778113991, 3.9832614695714677, 115048000000, 
45.42380791294507, -11.779739755511962, 3.9711207769861843, 115053000000, 
-0.7964395531876474, -1.290112402803436, 3.9714103053190137, 115058000000, 
-1.465593311470079, -2.7525600900374845, 3.972064620978638, 115063000000, 
25.45383191547422, 8.86741356352021, 3.9543286232065262, 115068000000, 
-0.5830191209543651, -0.8084340064981193, 3.9542590895852996, 115073000000, 
25.4015102757918, 5.899612637974947, 3.9404926309254598, 115078000000, 
-0.16591001953392046, -0.05428006075075627, 3.9403864333512524, 115083000000, 
-0.9873937024187227, -1.2719666194870465, 3.9403462312705875, 115088000000, 
10.060692344220309, 2.773218866241903, 3.93363190661358, 115093000000, 
1.688766385980422, 1.4328140615684948, 3.9315439810766617, 115098000000, 
0.6760837580223489, 0.9964693173924858, 3.930716169069422, 115103000000, 
1.1367035278396531, 0.5347042328888434, 3.9294530688914415, 115108000000, 
0.8912178921000403, 0.7497296362820305, 3.9281285049553176, 115113000000, 
1.2337155980760754, 1.0259468835826713, 3.9266022923721744, 115118000000, 
0.6818127919508984, 0.5471316993800216, 3.9258714008266375, 115123000000, 
0.7823696876897394, 0.8365286257915597, 3.9253944428203296, 115128000000, 
0.666358608154397, 0.5282227878687965, 3.924418498325079, 115133000000, 
1.3851487534914118, 0.7101970845943674, 3.9227694963257704, 115138000000, 
0.639285262236574, 0.49428093004469636, 3.9222563203892022, 115143000000, 
0.7908871196384536, 0.772516709375866, 3.9210709501984886, 115148000000, 
0.6394111744613624, 0.48270555734367576, 3.920592800694717, 115153000000, 
1.2900368250445249, 0.5858109483043555, 3.919247833078208, 115158000000, 
0.6347707221258103, 0.44565764358154053, 3.9186897661106705, 115163000000, 
0.8338923318677166, 0.6853406601340654, 3.9175776871914474, 115168000000, 
0.6334547419325782, 0.38705591508661324, 3.917921819802601, 115173000000, 
1.1982663472751087, 0.5302962547888901, 3.9162542265957105, 115178000000, 
0.18106971920799447, 0.3965657414406744, 3.9160364750618184, 115183000000, 
0.9726515948750757, 0.5270354561184856, 3.9151899481273666, 115188000000, 
0.5897098739096431, 0.33785049842177073, 3.9145993268677683, 115193000000, 
1.1113541371413764, 0.4445187101154382, 3.9139020203881256, 115198000000, 
0.5929765767804394, 0.3130444455030918, 3.9134553446209717, 115203000000, 
0.8030003845183112, 0.4758093439618683, 3.9126858050718205, 115208000000, 
0.5509058538004177, 0.2662469375564611, 3.912244103755726, 115213000000, 
1.0341825715055766, 0.3576425951453282, 3.911351674469103, 115218000000, 
0.49878127967285363, 0.2538764054016919, 3.910762777562875, 115223000000, 
0.6686675609899718, 0.32724486305390393, 3.9106083293419873, 115228000000, 
0.7845550209602568, 0.32353569626140655, 3.9090283055742483, 115238000000, 
0.48717786384950706, 0.23330725584012468, 3.9088647334014146, 115243000000, 
0.6336714096296338, 0.24842481405251132, 3.9077209233237546, 115248000000, 
0.6829793159095405, 0.3626927163985097, 3.907108784832074, 115253000000, 
0.40722121463604083, 0.1993402195423038, 3.9068002157298043, 115258000000, 
0.6583211840803259, 0.24742467565894838, 3.9059536456885815, 115263000000, 
0.6582217979129014, 0.27032169337520423, 3.9052602884723377, 115268000000, 
0.3894058349098738, 0.1856422437278071, 3.9048823189296256, 115273000000, 
0.7379937927578439, 0.2143310005878365, 3.9043747150204937, 115278000000, 
0.3661725623246031, 0.1768949594787764, 3.9034467999854927, 115283000000, 
0.5708911178658853, 0.2616219492827092, 3.9029942875292982, 115288000000, 
0.31163036881755474, 0.16014566407308073, 3.902784686789857, 115293000000, 
0.6378755422941942, 0.1885385508595001, 3.902491516589793, 115298000000, 
0.29291412120696647, 0.163083178155531, 3.901981248245036, 115303000000, 
0.4565660469676796, 0.22877488407155464, 3.9014606944182977, 115308000000, 
0.24714524159669957, 0.14476670260910632, 3.900781120077173, 115313000000, 
0.5247713721375542, 0.21811756932256635, 3.900633915881378, 115318000000, 
0.2090777067354769, 0.14357018373836355, 3.90055887418183, 115323000000, 
0.3801867388102659, 0.21198815433447793, 3.9002942550796367, 115328000000, 
0.16838393072212215, 0.15344640877905452, 3.8997233564418488, 115333000000, 
0.3959302337377585, 0.1907525614235353, 3.899680667607575, 115338000000, 
0.12452504486482063, 0.12657998242271373, 3.89914407180713, 115343000000, 
0.2612150520649817, 0.21854822120335712, 3.8990315062987615, 115348000000, 
0.18477298577261186, 0.1736080204300839, 3.8986365743823463, 115353000000, 
0.19852596384275278, 0.1677076258862602, 3.8988615460575224, 115358000000, 
0.06901476583086325, 0.14408500104320324, 3.898759838800515, 115363000000, 
0.18116048204352253, 0.2703535704764133, 3.898228261431624, 115368000000, 
0.038991164005377964, 0.1580906502247823, 3.8980662445177856, 115373000000, 
0.18654582616977367, 0.2293633014339234, 3.897830427163203, 115378000000, 
-0.016546161928835235, 0.15464761010278555, 3.8978168021615978, 115383000000, 
0.05045383787316323, 0.2692327401021002, 3.8973099874572585, 115388000000, 
-0.05645243614502794, 0.1747439842396175, 3.897563833251987, 115393000000, 
0.03448669403012337, 0.22941525613799782, 3.896400514353371, 115398000000, 
-0.06418879409804144, 0.1764493678834692, 3.8963567544671647, 115403000000, 
-0.06476418170544171, 0.2571821912368555, 3.895987742459069, 115408000000, 
-0.1157529254499767, 0.23892479675156417, 3.895279348199636, 115413000000, 
-0.1163727295707177, 0.29827680879586765, 3.895099872864491, 115418000000, 
-0.15494987650683542, 0.2161795417054784, 3.8944714370498, 115423000000, 
-0.17584588660771297, 0.355079321621433, 3.894254909119823, 115428000000, 
-0.18905097835829346, 0.1193373316059187, 3.8933482469173013, 115433000000, 
-0.2752497578550924, 0.3444144318170165, 3.892528016262114, 115438000000, 
-0.5025333136036665, 0.4107317623787182, 3.891159268891909, 115443000000, 
-0.030413502095721478, 0.2350937966046955, 3.890670640245131, 115448000000, 
-0.5710672905877239, 0.4547171217304104, 3.889557174452441, 115453000000, 
-0.1116492867225898, 0.25960616369228123, 3.888629190001112, 115458000000, 
-0.37192452973970724, 0.37726311942263757, 3.887744501219453, 115463000000, 
-0.8614490019522989, 0.6434096142886643, 3.88762233201121, 115468000000, 
-0.21783733747843154, 0.31265885297162854, 3.885840556489718, 115473000000, 
-0.4860557005621648, 0.43561491849989664, 3.885172610381819, 115478000000, 
-2.4880789465172897, 1.9878967838448154, 3.8839571759700835, 115483000000, 
61.22783292874894, -20.221217040988286, 3.858808165356888, 115488000000, 
47.27671139827992, -47.498834787382854, 3.8195439854018916, 115493000000, 
1.3694162650622341, -2.2988499104974047, 3.8158143434928937, 115498000000, 
-1.5040796385791109, 4.228523642704986, 3.806665637793569, 115503000000, 
2.2611065016384084, 0.7545829772088719, 3.8030090360310327, 115508000000, 
1.7472563072574592, 1.3272832316797323, 3.799389871583137, 115513000000, 
-6.372934817750932, 1.4746572317645892, 3.797946651634007, 115518000000, 
0.6870277262146788, 2.165526580139051, 3.792278039317954, 115523000000, 
1.6861354943399993, 1.8049658264519017, 3.787568339520063, 115528000000, 
1.4598884502951854, 1.8175626812625958, 3.7812321871704624, 115533000000, 
1.3026374029907812, 1.8864327156122511, 3.7748618810331735, 115538000000, 
1.153398255895838, 2.225505953763205, 3.7693272228634815, 115543000000, 
0.940494221788245, 1.7824289924658816, 3.7638287017811396, 115548000000, 
1.665446015788422, 1.5376050028042108, 3.7578364944375484, 115553000000, 
3.561874097170433, 1.1890145202307079, 3.7511685043838265, 115558000000, 
3.496070496386197, 1.2968409402012386, 3.744463759807104, 115563000000, 
1.3285382361161655, 1.7119681132813405, 3.7386541200721304, 115568000000, 
1.0530939106644226, 2.2844708690225946, 3.732540637570019, 115573000000, 
-5.176361060566638, 9.308682913934467, 3.7298789851180127, 115578000000, 
-5.101771047213042, 9.486388901044174, 3.7268542294181755, 115583000000, 
-1.2682061761898218, 4.885590187904828, 3.7222423363345074, 115588000000, 
-0.00447425171226597, 3.371436368862942, 3.71667035808932, 115593000000, 
0.4045156529379838, 2.832748613315247, 3.7109391376857617, 115598000000, 
0.5207011855296368, 2.7042653769702842, 3.704583959550628, 115603000000, 
0.5435133096650895, 2.6764257103792, 3.69859223704396, 115608000000, 
-42.81431929954386, -0.9428034834223589, 3.597052440256984, 115613000000, 
-36.76445382950344, -8.51153231531212, 3.4488820808261487, 115618000000, 
-3.752890055268919, -2.1510137521438804, 3.44390323791765, 115623000000, 
7.2310541490650655, 1.5591505227018871, 3.4439245638443547, 115628000000, 
2.196737608226835, 1.685597867860735, 3.441789054059994, 115633000000, 
0.9046347551936167, 2.1677278193052705, 3.439333445377996, 115638000000, 
0.5799266859883341, 2.114030254601936, 3.436016809581199, 115643000000, 
0.335944871458678, 2.297168848693425, 3.4330451717484713, 115648000000, 
0.34988849212629286, 2.4426424864825735, 3.430553293350195, 115653000000, 
0.3456967122206865, 2.5256146063923213, 3.427756676008619, 115658000000, 
0.3935611483390958, 2.5742826150128457, 3.4245476321882578, 115663000000, 
0.28783366405000577, 2.6490506772048414, 3.42156561341686, 115668000000, 
0.26350609467924635, 2.787094425692862, 3.4187751889276288, 115673000000, 
0.2392189370393861, 2.7391722317064757, 3.415575745441092, 115678000000, 
0.34730737123969063, 2.744385000656646, 3.4128367575572995, 115683000000, 
0.5105208434955173, 2.7308004034913687, 3.4099081742743613, 115688000000, 
0.5769035454973592, 2.7233328866493487, 3.4073948135853924, 115693000000, 
0.5931341003786093, 2.5250580376474008, 3.404664066880695, 115698000000, 
0.5637801897377123, 2.166108674090094, 3.4018078449149605, 115703000000, 
0.5603892197042053, 1.818520475873228, 3.399297157448659, 115708000000, 
0.577981749700807, 1.6981812535583027, 3.3967449740074698, 115713000000, 
0.5699092644290541, 1.695820597483328, 3.3939057994030017, 115718000000, 
0.5665718161827578, 1.4756306694706136, 3.3915186424440185, 115723000000, 
0.4882158632790853, 1.5611269320639627, 3.38974205753616, 115728000000, 
0.527243603618401, 1.7472247653673878, 3.3881056047767393, 115733000000, 
0.5591046146792058, 1.769421562765163, 3.3868109347322255, 115738000000, 
0.5108741007845297, 1.7928735092934194, 3.3853356944544806, 115743000000, 
0.5310331755450096, 1.8748747644615271, 3.383413061820048, 115748000000, 
0.5240686174768127, 1.9137085364154849, 3.3817969789655, 115753000000, 
0.5648613000559155, 1.9287834305822025, 3.3804269766939474, 115758000000, 
0.5390517336264828, 1.9450299096581607, 3.3789043683239224, 115763000000, 
0.5376601136878938, 1.9986366901206059, 3.3774987935019096, 115768000000, 
0.5666944299193902, 2.013660550401044, 3.3760116333839263, 115773000000, 
0.5699802413394527, 2.069162315986026, 3.374312705424974, 115778000000, 
0.6115648471141966, 2.1144084451795067, 3.372706651275703, 115783000000, 
0.5711867336747375, 2.1084223039935877, 3.3707910632978044, 115788000000, 
0.6101272079983538, 2.1930774295395197, 3.3689721407779785, 115793000000, 
0.613363415596843, 2.1627197090665757, 3.3674825291605734, 115798000000, 
0.618471985366186, 2.231655198504784, 3.3662390109075666, 115803000000, 
0.6272180029248231, 2.252606336170742, 3.3645536206200912, 115808000000, 
0.6406187495905655, 2.2803840623526055, 3.362512645017916, 115813000000, 
0.6480776525079581, 2.289462332037975, 3.361257192080728, 115818000000, 
0.6404371436107097, 2.3325412227095064, 3.3594081100742414, 115823000000, 
0.6510074602240161, 2.3615996439674127, 3.357634605040297, 115828000000, 
0.6874585819799689, 2.385026278499724, 3.356137716884997, 115833000000, 
0.6673358637471878, 2.4106289027631442, 3.3540044757472174, 115838000000, 
0.6880315507056327, 2.442487788412712, 3.3528233888336465, 115843000000, 
0.705929712930433, 2.4611422543599732, 3.3513677577327865, 115848000000, 
0.700025103032084, 2.48722445377863, 3.349647941233201, 115853000000, 
0.7465233134174575, 2.5434383200257242, 3.347836762683501, 115858000000, 
0.7396827862399902, 2.523804726782637, 3.3463867149981903, 115863000000, 
0.7864645075560154, 2.5693787649448776, 3.344592748190048, 115868000000, 
0.7671659819985305, 2.5648292206810783, 3.3435170417650073, 115873000000, 
0.7706695939108705, 2.6175717800274665, 3.341949057544741, 115878000000, 
0.802113367464048, 2.6180267062666074, 3.3404168093952533, 115883000000, 
0.7993578058100281, 2.6696560952617037, 3.33973407206237, 115888000000, 
0.8351180178490146, 2.710784957516862, 3.337279517850255, 115893000000, 
-37.51804667241629, 34.94710345884647, 3.3042277517416987, 115898000000, 
39.65518222293028, -33.12102734919922, 3.321588547247841, 115903000000, 
11.867224991644715, 4.124906983306165, 3.324209999789405, 115908000000, 
-6.7250902673022175, 5.225947591999719, 3.3187231149301364, 115913000000, 
-1.1478756079635504, 2.64391581985384, 3.3165346768206416, 115918000000, 
1.311846179376125, 2.3569424369639274, 3.3151533055117812, 115923000000, 
-30.10676155780238, 34.82570503257643, 3.2850528427625614, 115928000000, 
33.35847241658391, -38.56009604421198, 3.297163509694183, 115933000000, 
10.358395637380958, -1.0740843747069442, 3.30350123523192, 115938000000, 
-6.442850788863, 7.8809701542963095, 3.302063726685406, 115943000000, 
-19.334578601920473, 23.928697329998364, 3.2717158823553185, 115948000000, 
37.673939836942665, -40.95045097586562, 3.285061121792506, 115953000000, 
8.484157182301576, 0.9646466535725718, 3.2891448738795748, 115958000000, 
-20.696448370437594, 28.250143641663684, 3.263363097712532, 115963000000, 
25.030024151833988, -27.09967453620479, 3.274783981140487, 115968000000, 
-17.067058395297927, 28.167083520887918, 3.2545715025561854, 115973000000, 
13.493721708028065, -17.29559673234953, 3.2607346525740857, 115978000000, 
-7.7124485933397, 17.820205573423735, 3.2469327763815, 115983000000, 
1.771690298176328, 2.2020167090526543, 3.2401979862881127, 115988000000, 
-4.587782517341948, 5.807244321928294, 3.2314779287788666, 115993000000, 
-5.461707852131159, 7.426947380500924, 3.2224907324037204, 115998000000, 
-5.439242320095497, 10.014370932700476, 3.2148850330862992, 116003000000, 
-6.243934512019132, 11.65333634982029, 3.206254023915952, 116008000000, 
-8.364125400221674, 16.572041940011733, 3.194377679853926, 116013000000, 
-6.336074649073417, 5.100443181752191, 3.1892125996980316, 116018000000, 
-9.709146173441125, 3.7859098998098695, 3.183745870194662, 116023000000, 
-6.743422001550677, 2.7524118298363733, 3.179475308235197, 116028000000, 
-10.363232164661518, 4.5105463984256, 3.173013748752888, 116033000000, 
-6.691963437778312, 3.0408303012011024, 3.169052584621005, 116038000000, 
-9.57018275378334, 4.513915231094184, 3.1629495616150023, 116043000000, 
-6.6242232457411285, 3.281177460717711, 3.1587956847038794, 116048000000, 
0.08427749713779799, 1.8547052413443705, 3.158443820665543, 116053000000, 
0.2785527311978992, 1.0598655628379325, 3.158190141438397, 116058000000, 
0.42626120541189466, 1.557085907039923, 3.157204080302176, 116063000000, 
0.31020562748142455, 1.1073996075925356, 3.157028001178236, 116068000000, 
0.5945951801767656, 1.713320362700045, 3.1567441270495524, 116073000000, 
0.3144058518892884, 1.0900471653455537, 3.1562214369574964, 116078000000, 
0.5372856062533548, 1.61284434353344, 3.1555332927289568, 116083000000, 
0.33595178431049566, 1.1275755161113814, 3.1555561642632908, 116088000000, 
0.6777959551880858, 1.7581914954325792, 3.155070788788435, 116093000000, 
0.37926041519992226, 1.092245125777699, 3.1546821043104587, 116098000000, 
0.6171002267033563, 1.6408575414765272, 3.1541317573031393, 116103000000, 
0.44378256382505255, 1.1353986463065278, 3.153690012745191, 116108000000, 
0.7403914781804536, 1.7536754671373218, 3.153155134998296, 116113000000, 
0.4663513936218021, 1.1280670937172195, 3.152673291994348, 116118000000, 
0.7303640280611788, 1.6695648218743822, 3.151798412367918, 116123000000, 
0.46673440448409725, 1.1477469703699246, 3.151099581172918, 116128000000, 
0.8237609207006782, 1.7380585820467058, 3.1508912592862424, 116133000000, 
0.4741974155077058, 1.142589802983922, 3.1499839247414765, 116138000000, 
0.7544155301236792, 1.6625858793487254, 3.1491387357022536, 116143000000, 
0.7045825865161639, 1.488712410090299, 3.148879481854626, 116148000000, 
0.5425918049594288, 1.2338318055452775, 3.1482344623855827, 116153000000, 
0.719739881837628, 1.459486558062008, 3.1470893977621417, 116158000000, 
0.871204310826975, 1.6707713461498321, 3.146049427902156, 116163000000, 
0.5623264223124312, 1.0885861177990404, 3.1456160381034777, 116168000000, 
0.9380973534575239, 1.7863697685163658, 3.1451866397098107, 116173000000, 
0.5972433695651702, 1.1315744205376201, 3.1442882635819807, 116178000000, 
0.9120094207113115, 1.6926255220183724, 3.1431496945235224, 116183000000, 
0.6182961087011762, 1.140414371041431, 3.142693105322656, 116188000000, 
1.023925075550941, 1.713117623799708, 3.1421193229510553, 116193000000, 
0.5912959599680893, 1.132343788983466, 3.1418865012584787, 116198000000, 
0.9760347399077316, 1.698412733102678, 3.1405357931535267, 116203000000, 
0.8424552558055439, 1.4123373008329672, 3.140555819539259, 116208000000, 
0.8654676444374587, 1.4258803295554392, 3.1400221689214622, 116213000000, 
0.6454077077209823, 1.1042211199513243, 3.1396214587228894, 116218000000, 
1.0384759564962491, 1.648814691171092, 3.1390129057558687, 116223000000, 
0.8683852330405594, 1.394865940062039, 3.1386455037985033, 116228000000, 
0.8619971404972041, 1.4123838265750486, 3.138411595298956, 116233000000, 
0.6666875737806357, 1.1033528659145517, 3.1380906494868026, 116238000000, 
1.0510268408614334, 1.596119952755615, 3.1377123230312307, 116243000000, 
0.7121746746791914, 1.1449740248561222, 3.137887086028893, 116248000000, 
1.1265089824824102, 1.6779115495120207, 3.1373323363916636, 116253000000, 
0.7005027348110494, 1.1089724885092145, 3.137716547783763, 116258000000, 
0.9106146535878771, 1.3501974571234217, 3.137194146680253, 116263000000, 
1.08118251013618, 1.6204462091729341, 3.137422699829477, 116268000000, 
0.9263983430753145, 1.3722015328643506, 3.1373916430768825, 116273000000, 
0.948508973440911, 1.35589588159078, 3.1369982191991252, 116278000000, 
0.944259218223029, 1.3237734881060916, 3.137032176482683, 116283000000, 
0.9540473706474846, 1.3399423388133667, 3.1368480997383115, 116288000000, 
0.939008154457978, 1.3120431733534632, 3.136206212915617, 116293000000, 
0.7575974794588699, 1.059764988509298, 3.1362045003097947, 116298000000, 
0.9185434979556808, 1.3046142683137167, 3.1361741977381055, 116303000000, 
0.9668006063735639, 1.2909786401429306, 3.136183701199719, 116308000000, 
1.2436546615622674, 1.4969876759339327, 3.135259857866415, 116313000000, 
0.7375621930098558, 1.0260300074087028, 3.1352480235222595, 116318000000, 
1.1929926704225966, 1.5256511881469264, 3.1347319867253374, 116323000000, 
0.748945932136517, 1.0060536252245784, 3.1347290034742463, 116328000000, 
1.2089018874335564, 1.5122188716967153, 3.1340086751271414, 116333000000, 
0.7627800156775244, 0.9820864648857222, 3.133269258907353, 116338000000, 
1.2122880776681968, 1.5181652927048435, 3.13285356029893, 116343000000, 
0.7791547874315501, 0.9494558197201285, 3.133357738940536, 116348000000, 
1.2130318667055227, 1.4485836535683534, 3.1320110415092675, 116353000000, 
0.7770228425794641, 0.9501053503492783, 3.131745976067858, 116358000000, 
1.2024137366377223, 1.3937153761331436, 3.1314771217943824, 116363000000, 
0.9870182428058354, 1.2087450297615352, 3.1309727680540926, 116369000000, 
0.8601409519308181, 0.9935301405438546, 3.1304366488142663, 116374000000, 
1.2037879310618556, 1.3802115589882322, 3.129756646992736, 116379000000, 
0.7617060059554787, 0.9148764809827392, 3.129562488933506, 116384000000, 
1.2040362178673052, 1.3825665202741562, 3.129025552955259, 116389000000, 
0.7556540063536555, 0.8730391258898437, 3.1291507664850586, 116394000000, 
1.1907799102291334, 1.3374232751556931, 3.1287290402116485, 116399000000, 
0.7785763501069487, 0.8768966047909589, 3.128541578274375, 116404000000, 
1.204774510981259, 1.3186962053860958, 3.128667432963925, 116409000000, 
0.7655727746040365, 0.8698555957427939, 3.128232703358508, 116414000000, 
1.1745402457877812, 1.2713377919586715, 3.1279110251395963, 116419000000, 
0.7265664525912385, 0.8397911863953621, 3.1278831438437034, 116424000000, 
1.1830992101915396, 1.2265703687517198, 3.127864786465697, 116429000000, 
0.9480682128160006, 1.0259847636435375, 3.127717860953932, 116434000000, 
0.957233671656105, 1.0151328097333774, 3.12721429706502, 116439000000, 
0.7260287581983114, 0.7878526437875009, 3.127138678184184, 116444000000, 
1.160327416758206, 1.2135172264552208, 3.12695334839338, 116449000000, 
0.7102022347015235, 0.7866376611858651, 3.1266728391886427, 116454000000, 
1.0989168615803542, 1.2039124588741832, 3.1273796306615473, 116459000000, 
0.6915883410595036, 0.7401129239853068, 3.1269887614498164, 116464000000, 
1.1340817529103282, 1.1410776907012825, 3.1263358567640385, 116469000000, 
0.6897459474451525, 0.7604274959159925, 3.12665464384145, 116474000000, 
1.0985590791951012, 1.144382709469396, 3.126682951880099, 116479000000, 
0.6598143578230474, 0.7142642585178813, 3.12646316713442, 116484000000, 
1.0762012256322961, 1.0834495218281388, 3.1262317081002053, 116489000000, 
0.6525880040588549, 0.7365848644784179, 3.1260140429735417, 116494000000, 
1.0413244203493808, 1.0667501336954435, 3.125961421079318, 116499000000, 
0.6376705764047095, 0.7027397180545555, 3.1255436136925026, 116504000000, 
1.0005919302543527, 1.02915208061187, 3.1257542443482, 116509000000, 
0.6031479091653884, 0.7073301332161114, 3.125353460428491, 116514000000, 
0.9899453641674346, 1.0002164528588289, 3.12561070625075, 116519000000, 
0.6074580387676387, 0.6392576285946604, 3.125238479643195, 116524000000, 
0.9508329661717588, 0.9483897170390386, 3.125117090217846, 116529000000, 
0.5824527873433004, 0.6540169052886754, 3.124868968670346, 116534000000, 
0.8630179828390805, 0.9536592718402219, 3.1243538380027225, 116539000000, 
0.5568763207437599, 0.6480298343761194, 3.1244505711965584, 116544000000, 
0.7286842635872878, 0.7954791392833491, 3.1240224793451943, 116549000000, 
0.6805573002127129, 0.7378881002677429, 3.1238160961094255, 116554000000, 
0.6877865550259372, 0.7625714120276439, 3.1238328249667173, 116559000000, 
0.6707613469790393, 0.7569093524297381, 3.124055516858062, 116564000000, 
0.6772110711028535, 0.72352110781724, 3.123655067479127, 116569000000, 
0.642042433450209, 0.7111837980762453, 3.123523098636328, 116574000000, 
0.6219110512720049, 0.749385640575187, 3.123669131919167, 116579000000, 
0.6219423367591745, 0.6707049119169862, 3.12357475893282, 116584000000, 
0.5730319791184803, 0.7024337583320344, 3.1234755853960516, 116589000000, 
0.5068805815289121, 0.6788298713610482, 3.123647570146393, 116594000000, 
0.5385647505313595, 0.6670597055085928, 3.1234531451423075, 116599000000, 
0.5281136334347825, 0.6362402158184193, 3.123397923762565, 116604000000, 
0.501610620098115, 0.6428466708873684, 3.1232738572800978, 116609000000, 
0.4655911974137471, 0.6357777226446673, 3.123754907866896, 116614000000, 
0.46024745327192157, 0.6308227741045588, 3.123341935430783, 116619000000, 
0.4161625025792399, 0.6346461579166733, 3.12292652056068, 116625000000, 
0.3910977845886492, 0.5918777143935201, 3.123152793717085, 116630000000, 
0.38125029624591567, 0.5768405597227994, 3.1228018962572754, 116635000000, 
0.3582020306908498, 0.6051385776122167, 3.122492211476521, 116640000000, 
0.36320663759272676, 0.5585427328415128, 3.1225102140906094, 116645000000, 
0.30891121309111197, 0.592666394478216, 3.121994117947023, 116650000000, 
0.2659462536622807, 0.5715699592293793, 3.121792829370927, 116656000000, 
0.24413818243943605, 0.541587234855766, 3.1214181113413253, 116661000000, 
0.25317820113928347, 0.5557968177348155, 3.1210736669893517, 116666000000, 
0.21986806950859963, 0.5446070839324084, 3.1207593660688278, 116671000000, 
0.19175881263055586, 0.554878006714438, 3.1201357091230917, 116676000000, 
0.18508954260291682, 0.5070793532720156, 3.119727008251838, 116683000000, 
0.15906314281689798, 0.5214311538623774, 3.119376547326287, 116688000000, 
89.85525781074185, -50.180370419587895, 3.1630771155078214, 116693000000, 
20.468127166081317, -13.324076510049775, 3.1730608421055133, 116698000000, 
-2.4402140911968324, 3.3560828726143246, 3.1718989344991875, 116704000000, 
-0.9108706290332201, 3.3392838601736816, 3.1712638789294925, 116709000000, 
0.6234418745548055, 2.3170872794502877, 3.1716519001392007, 116715000000, 
-3.00397311532439, 2.711350435980459, 3.1703851387150466, 116720000000, 
6.217311594866845, 0.36586368141159276, 3.173006152910653, 116725000000, 
-2.0923782138977742, 3.0907483260343445, 3.1714082037460574, 116730000000, 
7.917411385168692, 0.8601451036038108, 3.1750319589088156, 116735000000, 
0.30052541873232874, 1.9204306344915316, 3.1728106887842316, 116740000000, 
0.09588826124339293, 1.928687076666675, 3.1717336187666874, 116745000000, 
0.5734196562281975, 1.9883998872785649, 3.1702098521577033, 116750000000, 
0.7510259433788733, 2.0569342993349875, 3.1690501115770773, 116755000000, 
0.7850865934480632, 2.075348151125689, 3.168173655932512, 116760000000, 
0.7706923930515541, 2.096857449028026, 3.1670544646928627, 116765000000, 
0.7671158699485611, 2.0612202111249562, 3.1659532947934146, 116770000000, 
0.7500001065715901, 2.091135230902545, 3.1648088818387916, 116775000000, 
0.7339622910313784, 2.100895602743777, 3.163683129300854, 116780000000, 
0.7021107889322366, 2.082435127211612, 3.1626320209677985, 116785000000, 
0.6848581270188795, 2.1005103487741956, 3.161513833888188, 116790000000, 
0.6509658472957636, 2.087193355589298, 3.1603797784688097, 116795000000, 
0.6316194464548802, 2.109214577231364, 3.159301889025532, 116800000000, 
0.6199840625600407, 2.089165716114546, 3.1581514658106684, 116805000000, 
0.5936237652826303, 2.098673843224731, 3.1567191775506895, 116810000000, 
0.5423754243108208, 2.064318895195239, 3.1558620661959695, 116815000000, 
0.5409772609369887, 2.0918130853306125, 3.154380738391673, 116820000000, 
0.4887161391334589, 2.1067440106483506, 3.1527115990462122, 116825000000, 
0.49183295586640735, 2.1066021488189604, 3.1513703497727916, 116830000000, 
0.4478489498192865, 2.0720914732604014, 3.1503550800505637, 116835000000, 
0.3933615375550468, 2.102632131616623, 3.1482290809256086, 116840000000, 
0.42962571218282125, 2.118243478762321, 3.14689161825859, 116845000000, 
0.4095411122709796, 2.1229742623907217, 3.1453507883117338, 116850000000, 
0.37626683724551957, 2.1230362445763213, 3.143815973108924, 116855000000, 
0.3074501028467268, 2.0977069264500434, 3.1422708186969914, 116860000000, 
0.31413006727995957, 2.090880322063138, 3.1402533538760093, 116865000000, 
0.28959492130414083, 2.1064782257760126, 3.1385095145989452, 116870000000, 
0.26169560370401773, 2.104742012430239, 3.1366233444843754, 116875000000, 
0.23943723648393697, 2.0944614890125592, 3.1351758051417606, 116880000000, 
0.23587042341275552, 2.165402603443273, 3.1333722536373805, 116885000000, 
0.15036332792674106, 2.1103377065324738, 3.1317430251719123, 116890000000, 
0.1905816859818434, 2.148122342073303, 3.1296890663054997, 116895000000, 
0.13282480909475353, 2.1399187048008614, 3.1282564540197475, 116900000000, 
0.12497973628839792, 2.149769020753363, 3.126151860950408, 116905000000, 
0.09684562577438144, 2.1653936447341002, 3.124364949561738, 116910000000, 
0.05462697615245331, 2.1667030582153144, 3.1234159627852582, 116915000000, 
0.05097347007291361, 2.162188842905608, 3.1214935165376088, 116920000000, 
0.006300447519786001, 2.1647913271846018, 3.119787856144269, 116925000000, 
0.023630103598929867, 2.185435257577935, 3.1180981531255614, 116930000000, 
-0.013119340352879033, 2.175687396823801, 3.1167349674857467, 116935000000, 
-0.04939259951985667, 2.168360572007466, 3.1150886771948163, 116940000000, 
-0.08617363039216577, 2.2029297561462013, 3.113350201167064, 116945000000, 
-0.12951069442016816, 2.20564705938357, 3.1124371134999818, 116950000000, 
-0.12828052496215625, 2.212824683682586, 3.110461035275311, 116955000000, 
-0.15608093612324844, 2.22159587796278, 3.1093734920932268, 116960000000, 
-0.1865335500742109, 2.2181949348813053, 3.107751878403622, 116965000000, 
-0.19301246184415966, 2.2450617554505246, 3.1062507711434213, 116970000000, 
-0.20977863595846613, 2.238197218046104, 3.1048888127343925, 116975000000, 
-0.24701051386936373, 2.2293633549087657, 3.1035001590400015, 116980000000, 
-0.2539580624651884, 2.2584830389214967, 3.1019159260131697, 116985000000, 
-0.25233087709119817, 2.2430193845724395, 3.100493097680371, 116990000000, 
-0.31310862088810054, 2.2599600395079382, 3.099064449388972, 116995000000, 
-0.32580603053654333, 2.2649934182271165, 3.09812911244671, 117000000000, 
-0.3480548352910598, 2.2975424996357234, 3.096093115973624, 117005000000, 
-0.3417525411914579, 2.2708365970264475, 3.0946890580265616, 117010000000, 
-0.3825885360043255, 2.3200429613864073, 3.09247035400691, 117016000000, 
-0.40471661338127707, 2.323966903160794, 3.090507886962157, 117021000000, 
-0.4118181340639535, 2.3286891418637463, 3.089192338628635, 117026000000, 
-0.43593900141497044, 2.3557864990786395, 3.0871242413942417, 117031000000, 
-0.4784387770887065, 2.3807275934331065, 3.085146727586028, 117036000000, 
-0.4788875557404864, 2.3433165102345246, 3.083812787556784, 117041000000, 
-0.4735333082757798, 2.387949895457768, 3.0819852480069745, 117046000000, 
-0.5280677190443385, 2.367915176983901, 3.0801009084996456, 117051000000, 
-0.5195013639739312, 2.4242663406453824, 3.0785579211770786, 117056000000, 
-0.5535295222802938, 2.404769355682033, 3.0767223586105055, 117061000000, 
-0.5489279238712235, 2.426249999586609, 3.0746014905734977, 117066000000, 
-0.6115267994550747, 2.4305189044694773, 3.0725415960855567, 117071000000, 
-0.6068804781165794, 2.443684922857331, 3.0710001488119993, 117076000000, 
-0.6502749867807239, 2.447413029299186, 3.06857007601569, 117081000000, 
-0.6251769292230006, 2.4654862715778467, 3.066868208757621, 117086000000, 
-0.6658656004460962, 2.489157443499543, 3.0651039942867375, 117091000000, 
-0.6859941579817237, 2.483344504173809, 3.0633383588367304, 117096000000, 
-0.7023654358306661, 2.490110199293427, 3.0612248089663914, 117101000000, 
-0.7351908266979593, 2.5170785066119374, 3.059456209054932, 117106000000, 
-0.7347596088549486, 2.5406545320251595, 3.0572968575913873, 117111000000, 
-0.7607097884555291, 2.559320625288473, 3.0559433311426187, 117116000000, 
-0.7387772597357202, 2.5788742424321134, 3.0543271102098224, 117121000000, 
-0.772324496828664, 2.5491122512305213, 3.0518544535780348, 117126000000, 
-0.8102409051840794, 2.5928638173251093, 3.050536573351953, 117131000000, 
-0.8326395693869401, 2.600538096378218, 3.04858918867816, 117136000000, 
-0.8177473219625673, 2.632798276592738, 3.046834987414829, 117141000000, 
-0.8704606998425971, 2.628013830576875, 3.045149773135092, 117146000000, 
-0.8711927658394387, 2.640603347481745, 3.0436113496655426, 117151000000, 
-0.8595212800970893, 2.682359001557081, 3.0417299513660097, 117156000000, 
-0.8989719384581569, 2.6766763823610615, 3.039886956450642, 117161000000, 
-0.9250166669662827, 2.6727764104523777, 3.0372532648277, 117166000000, 
-0.9109079596692028, 2.7066639688477867, 3.0359636367994973, 117171000000, 
-0.9088985306658608, 2.7276314441212604, 3.034239366986996, 117176000000, 
-0.9521322503687434, 2.7163262522782494, 3.0322698333502096, 117181000000, 
-0.9541700140647432, 2.755784910806036, 3.0305748523623244, 117186000000, 
-0.9803972718697547, 2.742950382346951, 3.028304147175172, 117191000000, 
-0.9775193243242625, 2.7636158607086507, 3.0263799826315942, 117196000000, 
-1.009100776995343, 2.7915977484974324, 3.0246887765537536, 117201000000, 
-1.0184772797551156, 2.7721332937141585, 3.022797738065742, 117206000000, 
-1.0152822782848547, 2.8169600605590346, 3.0208140469553557, 117211000000, 
-1.0382007646145681, 2.8169669153530554, 3.0189764229325644, 117216000000, 
-1.063515871034591, 2.823902419047929, 3.0171707943029413, 117221000000, 
-1.049606508469873, 2.8462617666719074, 3.0150103476891377, 117226000000, 
-1.0648621593792316, 2.8595797964463774, 3.0130047008068805, 117231000000, 
-1.0772596326572108, 2.9071024580388904, 3.011136945489665, 117236000000, 
-1.0605642149506638, 2.904251142379265, 3.0096347240013044, 117241000000, 
-1.0698001293931172, 2.936611480650323, 3.0077873669517703, 117246000000, 
-1.1284541282563825, 2.956312413220095, 3.0058369426588283, 117251000000, 
-1.0894952759101644, 2.96612344633514, 3.003688926956052, 117256000000, 
-1.1149105883246835, 2.9731473968353974, 3.0016317774777477, 117261000000, 
-1.1263301385518671, 2.9699900252198153, 3.000476691163924, 117266000000, 
-1.102762365358677, 2.991900355069407, 2.9983324440306847, 117271000000, 
-1.1546623054056508, 3.0426785602293607, 2.9966377350764177, 117276000000, 
-1.1399885023231586, 3.034757369943171, 2.9942380310122356, 117281000000, 
-1.137932413044883, 3.034657261455116, 2.99325576328283, 117286000000, 
-1.1717623273014772, 3.0565313504926173, 2.991142981244456, 117291000000, 
-1.1558592587041943, 3.0762077649358552, 2.9899546213402255, 117296000000, 
-1.2014517003954568, 3.0964104248156095, 2.987548878289611, 117301000000, 
-1.208567618995991, 3.125967260690935, 2.986444252315882, 117306000000, 
-1.2327274552928242, 3.1180051305027447, 2.9841603270624684, 117311000000, 
-1.2346015803801151, 3.158523086111026, 2.9826519800592672, 117316000000, 
-1.2150914529620962, 3.174220165255871, 2.9808393539632965, 117321000000, 
-1.2335500102154273, 3.17967515428689, 2.978887444030875, 117326000000, 
-1.2537344235958776, 3.1761692586052663, 2.9775268027871964, 117331000000, 
-1.2330950201807263, 3.1930005439484432, 2.9754753800419844, 117336000000, 
-1.2353431992544996, 3.2386970152754064, 2.9740172690728475, 117341000000, 
-2.8232780375388598, 3.081241202105785, 2.970975253262828, 117346000000, 
-1.8824603109261924, 3.322521344504006, 2.968973905332858, 117351000000, 
-1.3553398498829523, 3.256269775372708, 2.966572640240309, 117356000000, 
-1.2978642645436873, 3.2216499352129735, 2.9648376318361893, 117361000000, 
-1.2292922492709508, 3.260830199263807, 2.96288663878474, 117366000000, 
-1.2512484128826307, 3.3086686403152488, 2.9611629546468006, 117371000000, 
-1.2637088054984016, 3.275946166814272, 2.959159436878614, 117376000000, 
-1.2551713936421864, 3.3360010566805034, 2.9566670799916395, 117381000000, 
-1.2533102238506513, 3.3189389326567613, 2.954430777413463, 117386000000, 
-1.2935261310476507, 3.354969332773859, 2.9532383016212775, 117391000000, 
-1.2448010396623923, 3.3497165549813843, 2.9506692194025392, 117396000000, 
-1.283874236946571, 3.3589655925758226, 2.9488069042828817, 117401000000, 
-1.2891001781845401, 3.3989190841729675, 2.94619097303276, 117406000000, 
-1.3084489262990564, 3.4377391467962997, 2.9450651131388272, 117411000000, 
-1.3050216612840466, 3.4378340607023166, 2.941818974935495, 117416000000, 
-1.2790850544026233, 3.414366928102137, 2.9404489232409663, 117421000000, 
-1.28809058958637, 3.434986939367622, 2.93861506316934, 117426000000, 
-1.310345379915077, 3.447997374686742, 2.9363884876034785, 117431000000, 
-1.3011840994096209, 3.4855028339832095, 2.935222752177098, 117436000000, 
-1.309183086288868, 3.488256691389115, 2.9325723026396253, 117441000000, 
-1.3075340600095156, 3.4832593525919457, 2.9308336086997775, 117446000000, 
-1.3133719462308486, 3.520096038469516, 2.929285682342035, 117451000000, 
-1.3211395297166417, 3.520439130938624, 2.927103584510836, 117456000000, 
-1.3260062273039823, 3.541178647357793, 2.9256167688696806, 117461000000, 
-1.301033756534848, 3.5625312173415393, 2.9237521790549623, 117466000000, 
-1.293720544421056, 3.5762226908666515, 2.9217514170039687, 117471000000, 
-1.3113893535897592, 3.5904181096989842, 2.9204525110740773, 117476000000, 
-1.3110079689737872, 3.6223045522712427, 2.918854287940568, 117481000000, 
-1.318087461673458, 3.5863439259191385, 2.9172157588783825, 117486000000, 
-1.29571010170025, 3.631668176735726, 2.9160466493763093, 117491000000, 
-1.3058465131413455, 3.607915330644799, 2.91458008167636, 117496000000, 
-1.2841397277857498, 3.6650104208463468, 2.912817807725852, 117501000000, 
-1.2930408049724302, 3.6353187091920467, 2.911165479806219, 117506000000, 
-1.2946729174213563, 3.711273899513001, 2.9093391363691308, 117511000000, 
-1.2825707734027638, 3.7162065305775425, 2.907955280494275, 117516000000, 
-1.3058245732267715, 3.733896676641, 2.9064983850738018, 117521000000, 
-1.265813836637221, 3.736659754475318, 2.904543420853847, 117526000000, 
-1.2743852192883949, 3.7141877876019906, 2.902982928265866, 117531000000, 
-1.2695604721108653, 3.7583703450950767, 2.9014986315858144, 117536000000, 
-1.302857759198566, 3.7464126794874426, 2.89944249704583, 117541000000, 
-1.2662087370007968, 3.7818542450538533, 2.8981193015109636, 117546000000, 
-1.2695044136282476, 3.786418349867462, 2.8960418131930856, 117551000000, 
-1.269331472494882, 3.794112117657682, 2.8942826524192427, 117556000000, 
-1.2633830176272371, 3.8086449504921527, 2.8920351792240577, 117561000000, 
-1.2868039746162816, 3.8060874131390814, 2.890629121755878, 117566000000, 
-1.270554537497456, 3.83022034856507, 2.8884627596072354, 117571000000, 
-1.2739497156757527, 3.8272579177657273, 2.8866690024608106, 117576000000, 
-1.2332834340989953, 3.823266752752403, 2.8842748171351813, 117581000000, 
-1.2705307153433518, 3.873284058500107, 2.8824350144611075, 117586000000, 
-1.2342812277828774, 3.843875186647626, 2.880856216009584, 117591000000, 
-4.016890083532599, 2.65163823610363, 2.8785435599551126, 117596000000, 
3.1168755186677726, 4.240339181167639, 2.878359045906581, 117601000000, 
-2.5551565733668413, 3.8244504127397088, 2.8764190541273185, 117606000000, 
-2.447701279270516, 4.288370014578553, 2.8736457267556044, 117611000000, 
-1.2662557077451158, 4.099429661132102, 2.8720055076170357, 117616000000, 
-1.2152799659180757, 3.9902655449220097, 2.869916106503109, 117621000000, 
-1.2068244497730085, 3.9934110976029906, 2.8678969708410285, 117626000000, 
-3.9511009176889087, 3.006495846981283, 2.8658417343237375, 117631000000, 
3.53281888972443, 3.8853855390580088, 2.86637562445618, 117636000000, 
-0.9616433547478166, 3.7249930512325684, 2.865019464367923, 117641000000, 
-2.814245926050977, 4.554609441364579, 2.8622349328142476, 117646000000, 
-1.374519323648574, 4.305989879684565, 2.8609239763052607, 117651000000, 
-1.2344317182544227, 4.1207468069766815, 2.859070552964517, 117656000000, 
-1.1916273725436248, 4.070414064077943, 2.8573057273724323, 117661000000, 
-3.8754888151455806, 2.579269220928206, 2.855863737732421, 117666000000, 
4.015644012103351, 4.489128826516177, 2.856636655793756, 117671000000, 
-2.8198646685414275, 4.001666254270801, 2.854384160851976, 117676000000, 
-1.7637922394485686, 4.516785421709637, 2.8523936380217765, 117681000000, 
-1.2478013702438253, 4.260951860080896, 2.8509919274086304, 117686000000, 
-3.9333300673486526, 3.141005187521767, 2.848632674863392, 117691000000, 
3.5504669927701373, 3.9848153666007637, 2.8498848896149807, 117696000000, 
-1.7267163284758478, 3.658828840762282, 2.848251779355276, 117701000000, 
-2.188310625107239, 4.880068495988852, 2.8460471777149614, 117706000000, 
-1.3393113163609245, 4.414207386732031, 2.8445134348259775, 117711000000, 
-3.5484027937572455, 3.4973178007359302, 2.842005640136817, 117716000000, 
1.4082897462593191, 3.2714564081582584, 2.843016071487917, 117721000000, 
0.5305628934373756, 4.08542598921432, 2.8418263839316773, 117727000000, 
-2.649439976454434, 4.565611145210872, 2.839685301309908, 117732000000, 
-1.5164095606560952, 4.628860111368368, 2.8377475777878898, 117737000000, 
-1.1904351762944603, 4.315133166712674, 2.8356980557833387, 117742000000, 
-2.8623898799649052, 2.9320028756811856, 2.8344015689407964, 117748000000, 
5.234929775600097, 4.744512626801262, 2.8348367559992784, 117753000000, 
-2.510112760511866, 3.7081053038398095, 2.832696116971264, 117758000000, 
-1.7955671710120151, 5.0410582747032375, 2.830538062037331, 117763000000, 
-1.19808310165997, 4.541172942755498, 2.829240463572322, 117768000000, 
-3.9252287884148567, 2.9769148418380253, 2.827290115423111, 117773000000, 
2.897511702926946, 3.683063379833296, 2.8277760954225273, 117778000000, 
-1.6695455795180256, 4.373660162666157, 2.825588540273938, 117783000000, 
-1.210781295569405, 4.966383496109718, 2.823337158119977, 117788000000, 
-3.796693292580606, 3.37388495060448, 2.821325167647904, 117794000000, 
2.8469288999207367, 3.6034264087105417, 2.8215442786239766, 117799000000, 
-1.7386489849533986, 3.9984372372921104, 2.8198450677272286, 117804000000, 
-1.2417197603495467, 5.1059340920869625, 2.818455095081977, 117809000000, 
-1.0038082684339622, 4.511172817114024, 2.8164456265361477, 117814000000, 
-3.7404838644725182, 2.7497114272391485, 2.814836010957706, 117819000000, 
4.264418840048585, 4.3791727570637, 2.8160880985810457, 117824000000, 
-2.516469651412407, 3.9461467363376683, 2.813633563247259, 117829000000, 
-1.407508010481596, 5.0126147123248845, 2.812055003862495, 117834000000, 
-1.074898763559492, 4.557414505532756, 2.8106943663554533, 117839000000, 
-3.334800464844831, 3.6364292261249616, 2.8080241541210715, 117844000000, 
1.5257596928355108, 3.258906756534578, 2.809078156871783, 117849000000, 
0.3717854881188255, 4.1112705227146265, 2.808291618339766, 117854000000, 
-2.00746325039215, 4.392063805040713, 2.806109692809073, 117859000000, 
-0.9708749250670796, 4.692502169098392, 2.8040191591986465, 117866000000, 
-2.4663289273904616, 3.9474475588944458, 2.801888120959759, 117871000000, 
1.0209849603435082, 3.344866044098107, 2.802270778681322, 117876000000, 
-1.476664782279956, 3.8980543765803843, 2.800634612542813, 117881000000, 
-1.1079977483989296, 4.534370100079082, 2.799032975739544, 117886000000, 
-0.823678553993398, 4.659443688331216, 2.7971308815649554, 117891000000, 
-2.3925264392602195, 3.9844192797699094, 2.7953500179373023, 117896000000, 
0.424145998325748, 3.16902632272102, 2.795208845939729, 117901000000, 
-0.030696698697593405, 4.15679700197135, 2.794020924041263, 117906000000, 
-1.4291276022585535, 4.341846721452078, 2.791811840527511, 117911000000, 
-0.733898191286065, 4.622627261665645, 2.7903688313846446, 117916000000, 
-0.8217574679265718, 4.317954226257384, 2.78885985508082, 117921000000, 
-3.6633252724694696, 3.2549799498180265, 2.78673454172149, 117926000000, 
3.3016883184881185, 3.775096013565021, 2.7873085216358593, 117931000000, 
-2.0831577342545717, 4.189532294686972, 2.7850535148588422, 117936000000, 
-0.9287240621002867, 4.358307405147735, 2.7835438387055063, 117941000000, 
-0.642214982411258, 4.43369502368748, 2.7818298920938855, 117946000000, 
-0.722633238417623, 4.185668111774525, 2.7805034660483066, 117951000000, 
-0.7773840438933263, 4.114678086328905, 2.778832228214776, 117956000000, 
-3.581977850827636, 2.6438092609956048, 2.777621307269492, 117961000000, 
3.9053334671602786, 4.352046622399973, 2.7775793620040594, 117966000000, 
-2.4303500410558914, 4.30869389996853, 2.7749860040051155, 117971000000, 
-0.7109426868108092, 4.228764979052773, 2.7744311431386883, 117976000000, 
-0.6108674653156738, 4.174266089833524, 2.77271657581241, 117981000000, 
-0.6987004058316404, 4.082075997923222, 2.7713349089669195, 117986000000, 
-0.7214706004763785, 4.012527786877495, 2.7697105461819933, 117991000000, 
-0.7547719276744865, 3.986045147939379, 2.7685629039851483, 117996000000, 
-3.12504640961224, 3.3928155843366206, 2.7667199840624837, 118001000000, 
3.01172569209292, 3.611791274567467, 2.767302854615165, 118006000000, 
-1.8364540892797834, 4.373838752422224, 2.7652386918357323, 118011000000, 
-1.158925505808128, 4.18609254691114, 2.763881398855395, 118016000000, 
-0.5267773538554874, 3.9097872758417207, 2.7631682655099823, 118021000000, 
-0.5394223520818396, 3.870531549041492, 2.7616202355919524, 118026000000, 
-0.6542597438151186, 3.9553901611016142, 2.7599650745880258, 118031000000, 
-0.6891203745456442, 3.9339864751502502, 2.7589906643055038, 118036000000, 
-0.7123343983372916, 3.8958303490326087, 2.7577884419075813, 118041000000, 
-0.7030075142442108, 3.8555820143914894, 2.7559318581941126, 118046000000, 
-0.677569603790103, 3.846677953560405, 2.7549664057984047, 118051000000, 
-0.6868279218632759, 3.821290963637749, 2.753485680994184, 118056000000, 
-0.7133422430287555, 3.7511744182227065, 2.752392548199322, 118061000000, 
-0.7730684593216651, 3.6866643515730733, 2.750605646142047, 118066000000, 
-0.6436383505519832, 3.9856326318109723, 2.748872909762215, 118071000000, 
-0.5656679760377569, 4.242765122414105, 2.747622615397937, 118076000000, 
-0.6729685411371696, 3.9526325115579106, 2.7460588766582057, 118081000000, 
-0.6864033319905946, 3.85155481958824, 2.744528436497981, 118086000000, 
-0.6422773312957574, 3.7939323300328263, 2.7427606600899015, 118091000000, 
-0.6751424708619381, 3.8278866888953904, 2.741375944634047, 118096000000, 
-0.6555711182245039, 3.7802507414591613, 2.739314143131069, 118101000000, 
-0.643257035936045, 3.765975182567888, 2.73769401635571, 118106000000, 
-0.6281728570250877, 3.7203416771255653, 2.7361460843408465, 118111000000, 
-0.6410667826546823, 3.731657009686192, 2.7345239365375837, 118116000000, 
-0.6153606718178916, 3.691249982095987, 2.7332986641072834, 118121000000, 
-0.5867237096456526, 3.708921737572681, 2.7307605849682144, 118126000000, 
-0.6194005213527136, 3.703721133783006, 2.7290029585870843, 118131000000, 
-0.632679653044886, 3.684926539923265, 2.7276129749556466, 118136000000, 
-0.6458639396142398, 3.6821656119117834, 2.7257897320306945, 118141000000, 
-0.6223489483450552, 3.6727090470660007, 2.7241193370452113, 118146000000, 
-0.6276112900729978, 3.611715333121062, 2.723025476343517, 118151000000, 
-0.5958426611955584, 3.6293897976984346, 2.721056086425868, 118156000000, 
-0.6075882500319921, 3.573179477613613, 2.7190572980426513, 118162000000, 
-0.6282041505082949, 3.586986760159538, 2.7177312083877894, 118167000000, 
-0.5894560558988289, 3.565423578974379, 2.7160868261985875, 118173000000, 
-0.6232827807682652, 3.5370622630671957, 2.714624560035944, 118178000000, 
-0.6387073297836532, 3.5096306557726216, 2.713188027261333, 118183000000, 
-0.5915660824630662, 3.538845192347379, 2.7117312467155297, 118188000000, 
-0.6347325821797238, 3.503515169422341, 2.710411269339693, 118193000000, 
-0.6395984352991346, 3.489412214171628, 2.70911424791119, 118198000000, 
-0.6200493862221909, 3.4810020125152814, 2.707876974230937, 118203000000, 
-0.6280665073202568, 3.4421083220031017, 2.7063761537506283, 118208000000, 
-0.6388857163760784, 3.4820191187048084, 2.7052945499929804, 118213000000, 
-0.6246511929306763, 3.38464802651769, 2.7040015861419104, 118218000000, 
-0.6190945057027335, 3.408520596650311, 2.7027953226800823, 118223000000, 
-0.599162957724948, 3.3568750129566767, 2.7015794364895425, 118228000000, 
-0.5550852289155012, 3.2601517434066793, 2.7004623705319375, 118233000000, 
-0.47437866256975103, 3.207784241589119, 2.699310069556559, 118238000000, 
-0.3490948897764819, 3.0263979703027073, 2.6974557399757004, 118243000000, 
-0.28436049610645053, 2.9530393357710625, 2.6967415547111506, 118248000000, 
-0.19969553871870305, 2.792452343510326, 2.6956179597805305, 118253000000, 
-0.27422772044308924, 2.8663613228016924, 2.6945553634988344, 118258000000, 
-0.5478128172274301, 3.120563135989537, 2.692771177756143, 118263000000, 
-0.6193069247382842, 3.230612859580454, 2.6914465138193377, 118268000000, 
-0.6355710848563685, 3.2786255281420726, 2.689885433290507, 118273000000, 
-0.6481066292925638, 3.243324146199306, 2.6886421177309896, 118278000000, 
-0.6701838570230007, 3.3117963256786913, 2.6869490044767863, 118283000000, 
-0.6384243287720038, 3.2337265175483223, 2.684929380879137, 118288000000, 
-0.6870372629088495, 3.2274900153199857, 2.6836521270972518, 118293000000, 
-0.6963217782841005, 3.200457935700307, 2.682178625178978, 118298000000, 
-0.6835010879232519, 3.149425106345893, 2.680535688848581, 118303000000, 
-0.6817826304427803, 3.1502286753969386, 2.6785259936827037, 118308000000, 
-0.6660530285114493, 3.1293326995021196, 2.6769946571690655, 118313000000, 
-0.6799649051186921, 3.1008003568764138, 2.674492708696449, 118319000000, 
-0.7144758556835734, 3.0755777890730864, 2.673448251441187, 118324000000, 
-0.7355119148518933, 3.042303098083179, 2.6716480615088565, 118329000000, 
-0.7364214935694462, 3.040411569798289, 2.6698921478737367, 118334000000, 
-0.7443659114760144, 3.029205734784146, 2.668194628434703, 118339000000, 
-0.7056765992411036, 3.0255282502741996, 2.6668094878152653, 118344000000, 
-0.755679222891099, 3.002404780571132, 2.664801717851059, 118349000000, 
-0.7481568972373261, 2.9554632123195135, 2.6634828436927154, 118354000000, 
-0.7670419373939713, 2.92736332902446, 2.6620314651824057, 118359000000, 
-0.7499849342235888, 2.931298198015473, 2.660290555865139, 118364000000, 
-0.8190276565169887, 2.8982625210017066, 2.658882232980456, 118369000000, 
-0.7645574640267672, 2.9033589919500713, 2.6576788202324613, 118374000000, 
-0.7632786050461495, 2.876862162245158, 2.6560772613773245, 118379000000, 
-0.7995525310502497, 2.894487407350854, 2.653904690263599, 118384000000, 
-0.7990748289850457, 2.8469626366212, 2.652923429953144, 118389000000, 
-0.8183968566028821, 2.826822701122019, 2.6517537879711552, 118394000000, 
-0.8143060826300622, 2.799480486885445, 2.649651438555602, 118399000000, 
-0.8545862836238516, 2.7675224178652056, 2.647706145688319, 118405000000, 
-0.8578418662092523, 2.7144922738071986, 2.6465859608229403, 118410000000, 
-0.8319672400452657, 2.7548288947288864, 2.6451694056088098, 118415000000, 
-0.84210516715908, 2.7211184917884688, 2.6435061158560598, 118420000000, 
-0.8756170856264829, 2.696090576783052, 2.6417239013917317, 118425000000, 
-0.8860636716983413, 2.689700117276242, 2.640742976916897, 118430000000, 
-0.8987123812853403, 2.670924379345025, 2.639103820556226, 118435000000, 
-0.8874572152954155, 2.6513147627066314, 2.637396383297976, 118440000000, 
-0.9269666314396947, 2.6413970447073156, 2.6354120409799697, 118445000000, 
-0.92516059401663, 2.604345892382526, 2.633755380045765, 118450000000, 
-0.9423631336598105, 2.5870159481625783, 2.632463022642589, 118455000000, 
-0.9636274613932377, 2.5830599069611173, 2.630909972059993, 118460000000, 
-0.9963520065166757, 2.5757248730822595, 2.629449713888641, 118465000000, 
-0.9833721204778321, 2.570876771536326, 2.627875432105865, 118470000000, 
-1.0124360116127378, 2.5382351039266284, 2.62578459699791, 118475000000, 
-0.9914017087696255, 2.524477560444774, 2.624421909397496, 118480000000, 
-1.0052011213137906, 2.4711435192126454, 2.622502930050089, 118485000000, 
-1.010278420479365, 2.4530790694274542, 2.621160885493407, 118490000000, 
-1.0713389106237186, 2.468148270310087, 2.6189903253547415, 118495000000, 
-1.0683103702548942, 2.430655977556483, 2.6179826070018954, 118500000000, 
-1.0532760882343566, 2.4238366359027825, 2.6161534993575217, 118505000000, 
-1.0984815511169657, 2.4119457769326273, 2.614358285531963, 118510000000, 
-1.111134740868429, 2.427816700617403, 2.6125206680483886, 118515000000, 
-1.1343046268122918, 2.3532216133287074, 2.611303139947495, 118520000000, 
-1.0995624405921907, 2.347334916415345, 2.6089956720533927, 118525000000, 
-1.1274671910970138, 2.3415664974347643, 2.607703905136088, 118530000000, 
-1.156074234302644, 2.3437480737959766, 2.6060836668236176, 118535000000, 
-1.1870196053798576, 2.3222925673925023, 2.604930401641669, 118540000000, 
-1.2077684472631771, 2.2658020801791885, 2.602616548816722, 118545000000, 
-1.2497580492742544, 2.2439044867765086, 2.6013255605860723, 118550000000, 
-1.228717838828972, 2.2308412521656606, 2.5996427135304647, 118555000000, 
-1.2545749760273128, 2.238810043574146, 2.5977670577327516, 118560000000, 
-1.2742524950839074, 2.2216022550144143, 2.59646729926431, 118565000000, 
-1.3205430068108401, 2.1786082639089823, 2.595004511331234, 118570000000, 
-1.3114958175164175, 2.1823575105982322, 2.5930521390611836, 118575000000, 
-1.332928751720962, 2.1871922990122075, 2.591268350904945, 118580000000, 
-1.3462859571176204, 2.1560712748234416, 2.5893022988163157, 118585000000, 
-1.3463894677376413, 2.1156356678700527, 2.5875912125414016, 118590000000, 
-1.3504816544321132, 2.1121257026295996, 2.585732858113778, 118595000000, 
-1.3765985596441725, 2.0994853950858485, 2.5840728435089795, 118600000000, 
-1.4176059839708643, 2.0718574918835344, 2.5826350690038655, 118605000000, 
-1.4083517539395705, 2.048477170833435, 2.580228497189919, 118610000000, 
-1.4306584711254091, 2.0305851445084016, 2.5786429231687817, 118615000000, 
-1.4373766298459727, 2.0226191424661377, 2.5762348489750138, 118620000000, 
-1.4614599565223203, 1.996783121271887, 2.5745445135329317, 118625000000, 
-1.5194168485478554, 2.0029866782839836, 2.572122309879069, 118630000000, 
-1.5121377989381124, 1.980954652442445, 2.570349225532186, 118635000000, 
-1.5544629092935949, 1.9683151590543082, 2.5683998976805613, 118640000000, 
-1.5431840573747406, 1.9615256888624608, 2.5658230846139105, 118645000000, 
-1.5785116111806863, 1.9222749514974633, 2.5645180837750123, 118650000000, 
-1.5796983099567339, 1.9520307662208403, 2.5623158671598034, 118655000000, 
-1.6161801402433087, 1.9106016506533474, 2.560851254031474, 118660000000, 
-1.6458972589756804, 1.9208473452231822, 2.55745335839136, 118665000000, 
-1.6371976939636999, 1.8736570528153507, 2.5561452474691806, 118670000000, 
-1.6594422527357808, 1.8825637165032678, 2.5544756762332868, 118675000000, 
-1.682826169308538, 1.8495604321498644, 2.552443419525457, 118680000000, 
-1.6905036612561977, 1.8189276988275627, 2.5501258969551284, 118685000000, 
-1.7388499907123784, 1.8471572439998802, 2.54839309142165, 118690000000, 
-1.7702234402803618, 1.7972610007783887, 2.5465865899662083, 118695000000, 
-1.7864771007428086, 1.79753675431556, 2.5447435509899443, 118700000000, 
-1.8036447681739955, 1.77915124907785, 2.5426709484614576, 118705000000, 
-1.8512749213403221, 1.7709079455810668, 2.5412439233046933, 118710000000, 
-1.900765307297256, 1.7634333238242264, 2.5389794429434693, 118715000000, 
-1.8507213938236091, 1.7381898986107724, 2.537173920441494, 118720000000, 
-1.9198608218309081, 1.7219677388637702, 2.5356271165375004, 118725000000, 
-1.9313908035971257, 1.7007596369789513, 2.5338024026542536, 118730000000, 
-1.9494298767369431, 1.6957167476287376, 2.5315917789672415, 118735000000, 
-1.9388688140121717, 1.6718060411908113, 2.530128234790773, 118740000000, 
-1.9867613671401747, 1.6551473728716484, 2.528338630239555, 118745000000, 
-1.9902873086434028, 1.64710028784639, 2.5266780289013457, 118750000000, 
-2.039066086880927, 1.6270000689932103, 2.5250969100844043, 118755000000, 
-45.41584750167173, -2.659612128810135, 2.5011005628296554, 118761000000, 
52.58950067578645, 9.091944309848364, 2.5244667346370417, 118766000000, 
-4.56552319814404, 0.7256563152021658, 2.5201100989153744, 118772000000, 
-2.9465642328185377, 0.8318650756448578, 2.5178657934792716, 118777000000, 
-1.9692815863276476, 1.2790275238195963, 2.5160581602198904, 118782000000, 
-1.8292269745536354, 1.399895188862914, 2.5140739524083973, 118787000000, 
-1.9003672586931237, 1.438296222539341, 2.512095157510693, 118792000000, 
-25.67637122167404, -5.808757013316842, 2.5021966437019376, 118797000000, 
24.254841627190615, 10.690897553689858, 2.512266598010365, 118802000000, 
-5.241884588053077, 0.5920016366548139, 2.5081033349158477, 118807000000, 
-2.676099048500999, 1.0902669345764058, 2.5058716432227413, 118812000000, 
-42.97324291410591, 2.310798775932622, 2.48825242071793, 118817000000, 
34.29414957547222, 1.2274290328266226, 2.505665973449234, 118822000000, 
-5.191560558020249, 1.014566820946335, 2.5028062196298033, 118827000000, 
-38.218270527593845, 3.2576685966129193, 2.486388655307499, 118832000000, 
32.66575697566427, -1.2057580947307398, 2.50017347990024, 118837000000, 
-1.802216586714, 1.9417213779417324, 2.4978753103477733, 118842000000, 
-18.618096621098452, -0.6353822433824591, 2.491537890748892, 118847000000, 
14.455168989564509, 3.401868299293743, 2.4968686949095487, 118852000000, 
-8.743682048081581, 0.27306899592128564, 2.4945798020207857, 118857000000, 
-18.370596059375625, 4.666236971643103, 2.4875284557762822, 118862000000, 
18.797736941942162, -1.403166216381823, 2.495420115530425, 118867000000, 
-6.85320133632824, 1.1398923999567157, 2.4941436959070975, 118872000000, 
-8.12736537446143, 1.8173094307628455, 2.491481371935987, 118877000000, 
-2.594025980503503, 1.0570056982497622, 2.4917192702100843, 118882000000, 
-5.5847149720420655, 0.22633909541951172, 2.490818127862358, 118887000000, 
-13.846958970497317, 1.6279310172884465, 2.4865991289050315, 118892000000, 
-14.777587880444818, 2.787024304411996, 2.481392915044573, 118897000000, 
-15.952596532086432, 3.468856313957799, 2.476713208289546, 118902000000, 
-15.87013598446324, 3.6913945060624545, 2.471466065208824, 118907000000, 
-14.61750285839893, 1.7832960344137188, 2.4663267390651966, 118912000000, 
-10.917124777033605, -4.93960522002404, 2.461348455323622, 118917000000, 
-10.986863309019474, -4.798295947806658, 2.457944554538766, 118922000000, 
-11.074307511470632, -4.721952707147215, 2.450666973277173, 118927000000, 
-11.134831978082321, -4.594833821756851, 2.445069074909601, 118932000000, 
-6.137120059179548, -1.8257203912675055, 2.442781115734665, 118937000000, 
-2.7910080502023225, -0.07210292887510068, 2.4421818787577894, 118942000000, 
-2.8130255328594624, -0.11913337311304481, 2.4413292874733474, 118947000000, 
-2.8527951567597682, -0.10898902195037857, 2.4402451329005297, 118952000000, 
-2.8332210242589566, -0.08473821031976699, 2.4394816958845422, 118957000000, 
-2.8932007164102043, -0.08859039903966671, 2.438567850288876, 118962000000, 
-2.8984361537340866, -0.11742486786561616, 2.4375496736371747, 118967000000, 
-2.910735192792053, -0.11249915220088978, 2.4364625323640503, 118972000000, 
-2.9664470745062337, -0.11313144936988259, 2.4354672217223943, 118977000000, 
-2.9813535726622122, -0.0711434560851739, 2.434728486626529, 118982000000, 
-3.0143032812910255, -0.0965393327979175, 2.433740501271655, 118987000000, 
-3.0297972414140513, -0.07073765028498234, 2.4325711321148606, 118992000000, 
-3.049161572837547, -0.11594770257522638, 2.43156233636995, 118997000000, 
-3.084181574704287, -0.10616320899986098, 2.4298397699768577, 119002000000, 
-3.1270942823564325, -0.09361810364421122, 2.428718298661761, 119009000000, 
-3.1245220545175014, -0.11996971414295496, 2.4273600137500764, 119014000000, 
-3.1536862037220916, -0.123576125934692, 2.4263140671537617, 119019000000, 
-3.188003515987606, -0.16255236505615106, 2.4248764850073488, 119024000000, 
-3.1918605397556887, -0.10853244105549031, 2.423666109806629, 119029000000, 
-3.2588198697116977, -0.14840662262206056, 2.422761471480301, 119034000000, 
-3.2607054821331163, -0.17588094552135775, 2.4215185403822894, 119039000000, 
-3.244662524339115, -0.17493945744711026, 2.419988962111946, 119044000000, 
-3.304248435163379, -0.1335307031344393, 2.419344653180023, 119049000000, 
-3.357716728904215, -0.13970062789780222, 2.41751582925837, 119054000000, 
-3.3444093551181138, -0.12980201537434016, 2.417374270497565, 119060000000, 
-3.375521882628576, -0.1482451310446684, 2.4154791840481633, 119065000000, 
-3.3806218623355804, -0.13767306314541075, 2.4143692823050884, 119072000000, 
-3.442033416578132, -0.14870788179950867, 2.4124078306234913, 119077000000, 
-3.472247941608208, -0.15990326415958928, 2.4106557939898625, 119082000000, 
-3.5206928649522853, -0.16805981503100517, 2.408892322533784, 119091000000, 
-3.56018010616805, -0.14478694354957775, 2.4076517586924764, 119096000000, 
-3.5500995718972863, -0.15070880953043683, 2.4063292543541186, 119101000000, 
-3.591504015976413, -0.1635704656884047, 2.4053007323139655, 119107000000, 
-3.645129410647061, -0.1684979157416205, 2.4027038315510505, 119116000000, 
-3.6570155104564246, -0.1730683929736277, 2.401463061236039, 119121000000, 
-3.652669186288946, -0.12832901352463402, 2.3999463315021026, 119126000000, 
-3.69859850461627, -0.17879692741751027, 2.398524800130783, 119131000000, 
-3.710577351462977, -0.14596383020058354, 2.3975402844233455, 119136000000, 
-3.7604864552260713, -0.13977784382895203, 2.395719512714567, 119141000000, 
-3.7586378862199927, -0.11443431669223213, 2.3944700051779777, 119146000000, 
-3.786789248528455, -0.16205328737587765, 2.3932129681823238, 119151000000, 
-3.8112986377115634, -0.13717163579058114, 2.391771048508793, 119156000000, 
-3.809484784179189, -0.1709630169243084, 2.390263210008876, 119161000000, 
-3.824253334849552, -0.13603880463352577, 2.3891368162726145, 119166000000, 
-3.871653132945122, -0.11362241903532931, 2.3875456278959644, 119171000000, 
-3.8813676446723724, -0.16219706557824706, 2.386322977102463, 119176000000, 
-3.914144375936379, -0.1081180921473612, 2.3846966630273543, 119181000000, 
-3.9292850515241025, -0.1455237050736507, 2.3833137545840706, 119186000000, 
-3.9536414406299323, -0.13191008221687645, 2.381529958143957, 119191000000, 
-3.9717073262119804, -0.1355584541794898, 2.3804465983136174, 119196000000, 
-3.984189492805719, -0.11170691160806565, 2.3789426574685146, 119201000000, 
-4.005022198542723, -0.1083637471293977, 2.3767887670811403, 119207000000, 
-4.041972596328288, -0.1429409052134123, 2.375919955500466, 119212000000, 
-4.037177602700888, -0.10706220542625602, 2.374217389471312, 119217000000, 
-4.094004806830787, -0.1059688953641905, 2.3727193444637122, 119223000000, 
-4.077896988269118, -0.09877942969625457, 2.3711822068498294, 119228000000, 
-4.120222219120834, -0.09731970195406177, 2.3698858000328795, 119233000000, 
-4.189901180698709, -0.07064213544269908, 2.368426741071327, 119238000000, 
-4.170514612017988, -0.08519848540552875, 2.3675362027305726, 119243000000, 
-4.186690858491114, -0.09127687684343434, 2.3653308615494235, 119249000000, 
-4.210707007089628, -0.06976101303838851, 2.364338240993896, 119254000000, 
-4.202405604831536, -0.04357100332238743, 2.362813231579627, 119259000000, 
-4.263414134178891, -0.060272359361149073, 2.361592699366849, 119264000000, 
-4.2582012034456875, -0.06246027704197052, 2.3603550500099924, 119269000000, 
-4.291291214432982, -0.052719035123756176, 2.3587270186911486, 119274000000, 
-4.332088098780616, -0.05988117300444805, 2.3572836363514553, 119279000000, 
-4.329778448834832, -0.05132602416612418, 2.3557840264498426, 119284000000, 
-4.332593116670376, -0.03345601077588142, 2.354504374907567, 119289000000, 
-4.339201758622178, -0.07489408648657665, 2.3528598074693012, 119294000000, 
-4.3943548763858615, -0.01736472781378973, 2.35133563015243, 119299000000, 
-4.41204824819303, -0.04491031126272092, 2.3499558085715733, 119304000000, 
-4.424455833797804, -0.019493468896895065, 2.348630144350718, 119309000000, 
-4.431991068000162, -0.03616647599955909, 2.3464770669979194, 119314000000, 
-4.476823784806697, -0.0020953432898135798, 2.345155818654808, 119319000000, 
-4.4621465641037785, -0.012102411050881159, 2.3430833932287642, 119324000000, 
-4.483864031422485, 0.005967094499354149, 2.3412914087031123, 119329000000, 
-4.529137465083806, 0.03188736664771627, 2.3395696867196087, 119334000000, 
-4.519056561317012, 0.014168799825383806, 2.3378599163052005, 119339000000, 
-4.546294809062736, 0.03504728029240568, 2.3360762218495608, 119344000000, 
-4.578470556014889, 0.03921658492569193, 2.334412499233073, 119349000000, 
-4.581101630727918, 0.043435771797915426, 2.332664823037096, 119354000000, 
-4.584169936546595, 0.05439618956170448, 2.330929663300949, 119359000000, 
-4.607537371954711, 0.05623041006461896, 2.3292965999366952, 119364000000, 
-4.643949008091618, 0.08690047462698178, 2.3272797561220004, 119369000000, 
-4.63888513823717, 0.0862360906608346, 2.3257153900394103, 119374000000, 
-4.648960469272084, 0.09309994247682526, 2.323941545868408, 119379000000, 
-4.659087192767463, 0.08596425610444923, 2.32252289575346, 119384000000, 
-4.709423143251742, 0.06051721099660766, 2.3205674530159994, 119389000000, 
-4.694717687025253, 0.1004818853997705, 2.3191340077126084, 119394000000, 
-4.688174443345624, 0.0502941996187857, 2.3173901019637024, 119399000000, 
-4.746903994135746, 0.13325394900282256, 2.315669165613696, 119404000000, 
-4.744549731984283, 0.1212262949825418, 2.3144018139647935, 119409000000, 
-4.736341202583001, 0.13539079700104686, 2.3123576744363032, 119414000000, 
-4.798915564774764, 0.11332211443841413, 2.310947173370197, 119419000000, 
-4.802931166738798, 0.09586374127988892, 2.309611748293339, 119424000000, 
-4.821096883129245, 0.11441690365066423, 2.308447135165146, 119429000000, 
-4.833048115612521, 0.11867042125450628, 2.3066109380666697, 119434000000, 
-4.8133939394992655, 0.15202838722567782, 2.304995226523608, 119439000000, 
-4.833184677154956, 0.1771633056159622, 2.303254762282001, 119444000000, 
-4.851210946935899, 0.2209910071759498, 2.3023871703060057, 119449000000, 
-4.855152992785467, 0.19151953511190506, 2.3007499978078014, 119454000000, 
-4.892705884968288, 0.17368110677241638, 2.299164613545384, 119459000000, 
-4.893977295143919, 0.21477750253693517, 2.2974067159526386, 119464000000, 
-4.910685306424888, 0.22043121018819734, 2.2959334040434674, 119469000000, 
-4.956737315345188, 0.2144382919756295, 2.294189707100816, 119474000000, 
-4.922797046869123, 0.21306718721672885, 2.293027723679858, 119479000000, 
-4.949639128096508, 0.20002060590224377, 2.291247169739476, 119485000000, 
-4.952962883567635, 0.2583638242735494, 2.289393276011022, 119490000000, 
-5.0026923173885525, 0.25897224090691734, 2.287954618826883, 119495000000, 
-4.989130062931313, 0.2576132623844026, 2.285780175964595, 119500000000, 
-4.967239766222842, 0.2772449169979265, 2.2839411625199686, 119505000000, 
-4.994246574674348, 0.2719882110309417, 2.282538195095174, 119510000000, 
-5.017266482473404, 0.3088911401154524, 2.281038235480539, 119515000000, 
-5.03110790401165, 0.29453970986851735, 2.2789217332246587, 119520000000, 
-5.055339847743351, 0.347331936333469, 2.277452393767503, 119525000000, 
-5.04618513730649, 0.3165530203494636, 2.274762054310976, 119530000000, 
-5.062840046221238, 0.32048319395738445, 2.273552797964056, 119535000000, 
-5.100682940848888, 0.32475394440508465, 2.27151564324689, 119540000000, 
-5.07699952528419, 0.37272352040550366, 2.269617795761458, 119545000000, 
-5.097950071038111, 0.35771709839907445, 2.267467132225106, 119550000000, 
-5.156304018741478, 0.3416669489315096, 2.2661142719548466, 119555000000, 
-5.117344305500158, 0.3964320136063589, 2.2640945696954144, 119560000000, 
-5.149704117882024, 0.42351897008824835, 2.2620941225610496, 119565000000, 
-5.131936703024929, 0.4057048983968591, 2.2605871164947704, 119570000000, 
-5.155369561239547, 0.40936044244867376, 2.2588967151685457, 119575000000, 
-5.131466733340439, 0.3956663661543889, 2.256750812157113, 119580000000, 
-5.215485800753072, 0.3910490049204838, 2.254873124034214, 119585000000, 
-5.1717749539970885, 0.42190132135752273, 2.2533625590323765, 119590000000, 
-5.186064316375033, 0.4427222000442074, 2.251702651449979, 119595000000, 
-5.233886016403399, 0.43385711301859975, 2.249542118256191, 119600000000, 
-5.21409471974014, 0.46387456523260884, 2.2479649398425043, 119605000000, 
-5.204424281957063, 0.447361494777491, 2.2465703040930185, 119610000000, 
-5.238041523135361, 0.4592760278896837, 2.2446377218052773, 119615000000, 
-5.208028483135881, 0.4649993970674034, 2.2431756492465005, 119620000000, 
-5.223602175947555, 0.4754307568675298, 2.2416666559722365, 119625000000, 
-5.265605365291016, 0.48779093428280423, 2.239671164858031, 119630000000, 
-5.281319304206395, 0.4705468281421262, 2.23810031684249, 119635000000, 
-5.276747618404058, 0.5081370949139364, 2.23637035359685, 119640000000, 
-5.2845182074060055, 0.4892923305316472, 2.235222779963067, 119645000000, 
-5.272481313952864, 0.4930406464302132, 2.2333920256436883, 119650000000, 
-5.281209336693335, 0.5043501142606185, 2.2313979132331547, 119655000000, 
-5.29479898426623, 0.5584062771880229, 2.229841946047818, 119660000000, 
-5.280550033672117, 0.581022028561218, 2.228158008790216, 119665000000, 
-5.329962600858893, 0.5708226541961162, 2.2269771528989195, 119670000000, 
-5.314309104668522, 0.562445955687791, 2.224814251601014, 119675000000, 
-5.325047420844329, 0.6008317807907907, 2.2231304172648487, 119680000000, 
-5.373517481441602, 0.5593666404348963, 2.22138495020748, 119685000000, 
-5.324924895191273, 0.5738248215465062, 2.2199579067961133, 119690000000, 
-5.329840942544927, 0.5959135406147015, 2.2178723648790952, 119695000000, 
-5.3549230491290105, 0.6111684494943214, 2.2164760477041847, 119700000000, 
-5.329451891752541, 0.627021385571105, 2.2140823202149016, 119705000000, 
-5.341076802576045, 0.6161393847951341, 2.2125403490247995, 119710000000, 
-5.392848519552013, 0.6284104003485064, 2.211011023120438, 119715000000, 
-5.3597647276332605, 0.6335256555465651, 2.2093764795956212, 119720000000, 
-5.378556057061299, 0.653169359278876, 2.207440811775561, 119725000000, 
-5.37358736016632, 0.6752037140208301, 2.2057932951685504, 119730000000, 
-5.388614660322915, 0.6702310270461531, 2.2037925034070063, 119735000000, 
-5.405366002947775, 0.726717434066179, 2.2021507381821293, 119740000000, 
-5.418029247784849, 0.6886673867274079, 2.2002871006678917, 119745000000, 
-5.408567459456612, 0.6829946486439074, 2.1985812039505626, 119750000000, 
-5.406590035316218, 0.698742657183731, 2.1968447273787852, 119755000000, 
-5.444035307652873, 0.6753509976541401, 2.1952593187583886, 119760000000, 
-5.413259410525287, 0.7164527954645625, 2.194025486644305, 119765000000, 
-5.391110571384483, 0.6783533317849317, 2.1917231090293314, 119770000000, 
-5.422510144595153, 0.7204736074554101, 2.189757024712148, 119775000000, 
-5.433771982461481, 0.7367377952469628, 2.1881798121414016, 119780000000, 
-5.4219694826515585, 0.7278344492095159, 2.1867579569619395, 119785000000, 
-5.444838819843825, 0.7027223114969651, 2.1849984993128473, 119790000000, 
-5.447819297029774, 0.7491456805445112, 2.183617803166384, 119795000000, 
-5.436581686096928, 0.7692385437816959, 2.1816516886178143, 119800000000, 
-5.439406905067643, 0.7519639826799334, 2.1799854668495233, 119805000000, 
-5.476234887785772, 0.7572795738725508, 2.1785739506186426, 119810000000, 
-5.429557983611358, 0.7729032351409888, 2.1762699924407363, 119815000000, 
-5.45191220740174, 0.7352286195134287, 2.174506577901357, 119820000000, 
-5.474358236497258, 0.7892891328561983, 2.172725860799212, 119825000000, 
-5.4930407461248, 0.8004214221380406, 2.1710312450234692, 119830000000, 
-5.479863496660348, 0.8039883820588071, 2.1696714088235387, 119835000000, 
-5.451064681353683, 0.7777830860479243, 2.1675781427041514, 119840000000, 
-5.486577199971358, 0.7816241695542898, 2.1658696148667245, 119845000000, 
-5.4877977723459725, 0.8357231390903819, 2.164371712688151, 119850000000, 
-5.484404229784868, 0.8508462263095568, 2.162008245258062, 119855000000, 
-5.50304195786833, 0.8256063737205939, 2.1602527798870126, 119860000000, 
-5.474046659336166, 0.8156351553125095, 2.158409847283187, 119865000000, 
-5.503311882870059, 0.8098267916733274, 2.1572600674125444, 119870000000, 
-5.485669720381277, 0.8306869895820178, 2.155018254749116, 119875000000, 
-5.493842034755897, 0.8635541611502875, 2.1532391007460676, 119880000000, 
-5.510895699815312, 0.8443148427160271, 2.1516927614066312, 119885000000, 
-5.502706249523066, 0.8636934245491349, 2.1497499470786816, 119890000000, 
-5.524829819225659, 0.8407295091405685, 2.1476613916519587, 119895000000, 
-5.4968311442690165, 0.882767824524785, 2.145667002662377, 119900000000, 
-5.50196559471303, 0.8743147016068393, 2.1441222181394175, 119905000000, 
-5.519992106281749, 0.8325306420220622, 2.1429054055246457, 119910000000, 
-5.532236847741859, 0.8909650935586371, 2.140821359107344, 119915000000, 
-5.507603145196973, 0.9062234878562353, 2.1390088931542484, 119920000000, 
-5.560635490045078, 0.9129019986853076, 2.137469016735063, 119925000000, 
-5.523921315979023, 0.9331769601986073, 2.135467431911137, 119930000000, 
-5.556514397682546, 0.8912366563597464, 2.1342050469715814, 119935000000, 
-5.526025815462043, 0.8924091241504312, 2.1328300507187246, 119940000000, 
-5.562546169217111, 0.9344567663774641, 2.1309372451613644, 119945000000, 
-5.532706979257424, 0.9339306410870377, 2.129503675790287, 119950000000, 
-5.5587581738938745, 0.903926137347801, 2.127869287650814, 119955000000, 
-5.529783322399671, 0.8898885893312919, 2.126680099186476, 119960000000, 
-5.516368552610748, 0.8946107926998851, 2.124701136622953, 119965000000, 
-5.573538216931917, 0.9254756870829117, 2.1232278548375536, 119970000000, 
-5.534254706167703, 0.9071242081335714, 2.1220315949545943, 119975000000, 
-5.530960850196901, 0.9559080088194436, 2.119998621875009, 119980000000, 
-5.549552837412728, 0.9121533957214045, 2.1184790605259756, 119985000000, 
-5.54121839817606, 0.922569988023915, 2.1171030923289984, 119990000000, 
-5.5197173279870135, 0.9199389900085392, 2.1154182467310343, 119995000000, 
-5.523238794425086, 0.9445012660857862, 2.113489037388725, 120000000000, 
-5.537517893632488, 0.9374160066219333, 2.112153556589006, 120005000000, 
-5.560571659740191, 0.9387383159192342, 2.110273596827441, 120010000000, 
-5.542185627423901, 0.9677837007112011, 2.1089716846223636, 120015000000, 
-5.548713160821419, 0.9204252488255424, 2.1071690553746274, 120020000000, 
-5.5107767017405225, 0.9278684784020135, 2.1055212350706025, 120025000000, 
-5.565283570481801, 0.925722626833123, 2.103366488298105, 120030000000, 
-5.51277850487752, 0.9453243098454568, 2.1017052501514395, 120035000000, 
-5.562103916507272, 0.9548209983742099, 2.0999468504378065, 120040000000, 
-5.546460497503422, 0.9308813217224666, 2.0977314543556784, 120045000000, 
-5.536156023560912, 0.9655883193749664, 2.096230796955368, 120050000000, 
-5.514186600291541, 0.973001677250061, 2.0943398481554563, 120055000000, 
-5.588610048003627, 0.9720069963532606, 2.0926216795712866, 120060000000, 
-5.564951334248235, 0.9457130607112931, 2.0908381366708753, 120065000000, 
-5.548133028205299, 0.9574777962119853, 2.0883946956893547, 120070000000, 
-5.535680796371527, 0.96176407726146, 2.0866916329437952, 120075000000, 
-5.562018474308255, 0.9558470985840268, 2.0848288033957854, 120080000000, 
-5.550346642038942, 0.9549007968680713, 2.083476824196938, 120085000000, 
-5.5609044943804635, 0.9330972681119278, 2.081231743948785, 120090000000, 
-5.5809835176095675, 0.9179630284749944, 2.0791475108557913, 120095000000, 
-5.5541514618005445, 0.9664291821868817, 2.0770714053275645, 120100000000, 
-5.562331556928147, 0.9499211335561824, 2.075588205317288, 120105000000, 
-5.533485383686597, 0.9303949922708654, 2.0742880652842564, 120110000000, 
-5.545583017934357, 0.9473795759293516, 2.0722996474412114, 120115000000, 
-5.5459078032380535, 0.9284235309246368, 2.070582447725777, 120120000000, 
-5.563890937946023, 0.9584587737823506, 2.069208905705955, 120125000000, 
-5.5418037106831814, 0.953261361060168, 2.067136183065795, 120130000000, 
-5.523643678669936, 0.9531375060478086, 2.0655811393046495, 120135000000, 
-5.555526371938582, 0.9361232534371593, 2.0642429736863583, 120140000000, 
-5.548297949231954, 0.9463014879379551, 2.0623751882356376, 120145000000, 
-5.539709999376796, 0.9390142692828927, 2.061042860470723, 120150000000, 
-5.565078637354197, 0.9403656764908432, 2.059652560601705, 120155000000, 
-5.5866176872420645, 0.9137921015589436, 2.0579669445651527, 120160000000, 
-5.567079867429582, 0.8771124827351685, 2.0565736250136304, 120165000000, 
-5.5283085610245015, 0.9477472141886165, 2.055079505351393, 120170000000, 
-5.541810578343293, 0.9497334911345101, 2.053555284352257, 120175000000, 
-5.526312513008351, 0.8778122617543132, 2.0519381041990425, 120180000000, 
-5.535869203916579, 0.8802683510639177, 2.050089029278555, 120185000000, 
-5.548572453718022, 0.8825931286134467, 2.048895508233614, 120190000000, 
-5.521323458818799, 0.909809587236317, 2.0470951510187003, 120195000000, 
-5.546941384721094, 0.9253445341504558, 2.0457855469945256, 120200000000, 
-5.555100733404429, 0.907976836325098, 2.0438901603026705, 120205000000, 
-5.565906291565738, 0.8834940860784692, 2.0422541018274423, 120210000000, 
-5.53370047984129, 0.9146063126889956, 2.040268989191976, 120215000000, 
-5.541392465579519, 0.9118143889656692, 2.0391341498334232, 120220000000, 
-5.536293645591405, 0.8694338233534162, 2.0370716552967094, 120225000000, 
-5.563953989963656, 0.8628677687714661, 2.0357081978528515, 120230000000, 
-5.541919606648526, 0.8891504763534903, 2.0335316362362446, 120235000000, 
-5.575159085071024, 0.8851221293616324, 2.0314661104733287, 120240000000, 
-5.533483834002117, 0.8673617425043693, 2.0293886571343616, 120245000000, 
-5.540730504945021, 0.8507393748628266, 2.0281487098834017, 120250000000, 
-5.576106589353599, 0.8601244399898078, 2.026224909710533, 120255000000, 
-5.538987584644975, 0.8492760041219076, 2.024386999688706, 120260000000, 
-5.537464871309997, 0.8211379103815237, 2.0229642981969986, 120265000000, 
-5.576929137984718, 0.8521712033212491, 2.020185129974912, 120270000000, 
-5.53457076286541, 0.8225567373070477, 2.0188368196471913, 120275000000, 
-5.551823149119214, 0.8327071763289848, 2.0166217356586067, 120280000000, 
-5.517955463090371, 0.804284030239678, 2.014835029806155, 120285000000, 
-5.564314999261571, 0.7858597670908087, 2.0132847337263557, 120290000000, 
-5.57090260855006, 0.7651373153254821, 2.011094428740316, 120296000000, 
-5.568255944091958, 0.807211492722349, 2.0095497180039255, 120301000000, 
-5.564855076519607, 0.7529863806771816, 2.007960969362341, 120306000000, 
-5.564634864685486, 0.7493415010026447, 2.005652462379483, 120311000000, 
-5.554134811222131, 0.7777016697392161, 2.0035012462385025, 120318000000, 
-5.56545848907013, 0.7626287496558285, 2.0019924801550997, 120323000000, 
-5.569880100646561, 0.7130959550715756, 2.0001588454369688, 120328000000, 
-5.555507505685575, 0.7403195470806677, 1.9980124520038482, 120333000000, 
-5.575959466865639, 0.7222818465681562, 1.9965871312305223, 120338000000, 
-5.579238797730739, 0.7285345243948896, 1.994833924464516, 120343000000, 
-5.554903259711365, 0.7488603891033178, 1.993643697517763, 120348000000, 
-5.616364921332888, 0.6965202658926278, 1.9914312377057586, 120353000000, 
-5.582684258499796, 0.7310051750995549, 1.989309100961178, 120359000000, 
-5.5695755300143395, 0.7101379678397074, 1.988160458308406, 120364000000, 
-5.5564236679222105, 0.6907534768701645, 1.9857606178971101, 120369000000, 
-5.570330737309971, 0.6981381008626247, 1.9845173720439453, 120374000000, 
-5.561594754774433, 0.6905807371548618, 1.9825570845544003, 120379000000, 
-5.580407509196343, 0.6922568339971217, 1.981161198680541, 120384000000, 
-5.603520117419595, 0.6347587008833446, 1.9790073128357724, 120390000000, 
-5.579798947015248, 0.6183250466316306, 1.9769085354145035, 120395000000, 
-5.586201397724606, 0.6134241850179296, 1.9748537386129834, 120401000000, 
-5.62532165480407, 0.6256422501505327, 1.9728148140582749, 120406000000, 
-5.600981302342725, 0.6301903679246302, 1.9712142130976518, 120411000000, 
-5.593089699825601, 0.5765051683859774, 1.9690721596776548, 120416000000, 
-5.600472155502403, 0.593349128567117, 1.9675540470373327, 120421000000, 
-5.603007421456605, 0.5656727292244054, 1.9657497739527638, 120426000000, 
-5.632197517915375, 0.5599893021123185, 1.9637965056907183, 120431000000, 
-5.604682915438984, 0.5579850355060443, 1.9620930985081655, 120436000000, 
-5.6090832459136015, 0.5535625080426211, 1.9603795125493815, 120441000000, 
-5.649424373509639, 0.5273519979116392, 1.9588059445415311, 120446000000, 
-5.636730084201833, 0.511138698063855, 1.9567657880960094, 120452000000, 
-5.602916623207011, 0.4783485128530101, 1.9541995142494004, 120457000000, 
-5.625352508259867, 0.5003719616440511, 1.9527306528788373, 120462000000, 
-5.641841983147429, 0.4855664135424693, 1.9507560687338115, 120467000000, 
-5.641389696338932, 0.4480624160881584, 1.9494065053475167, 120472000000, 
-5.620294039246176, 0.45608579432925206, 1.9475693828029765, 120477000000, 
-5.643777092794367, 0.4606203395924439, 1.9455515920573587, 120482000000, 
-5.650326327373955, 0.43143703874923317, 1.9442458574697683, 120487000000, 
-5.6592631210580855, 0.4176556419173022, 1.942002512178505, 120492000000, 
-5.64983764446938, 0.43177827766607707, 1.9407095849551124, 120497000000, 
-5.642796101832035, 0.38104903750234537, 1.9386855761137831, 120502000000, 
-5.632474520738737, 0.38010116543790456, 1.9367814220192745, 120507000000, 
-5.689121108062759, 0.37716206672722463, 1.9346660725890144, 120512000000, 
-5.666989617381639, 0.3719100247093612, 1.9331938302143892, 120517000000, 
-5.636838110788715, 0.3547447916305342, 1.931070489826299, 120522000000, 
-5.660926275490493, 0.336110168866215, 1.9293864458551677, 120527000000, 
-5.652393559207823, 0.3379614888232014, 1.9278302999004677, 120532000000, 
-5.701619758041397, 0.3112071738411778, 1.9251924179793625, 120537000000, 
-5.677321452761166, 0.28708397669330665, 1.9238787573325105, 120542000000, 
-5.666592113324037, 0.2867245534332241, 1.9219647293675481, 120547000000, 
-5.692961332918122, 0.27603617895408805, 1.9198701292308304, 120552000000, 
-5.687017577581274, 0.2336910105203972, 1.9179656050492406, 120557000000, 
-5.675548545982262, 0.24935517065128454, 1.9157734937531157, 120562000000, 
-5.681840831691071, 0.22355185565568372, 1.91374889595984, 120567000000, 
-5.686464783252498, 0.2055275416735107, 1.9116265184451924, 120572000000, 
-5.709775953338815, 0.16369496446904303, 1.9096243900711045, 120577000000, 
-5.685330363085595, 0.18670386321987298, 1.9075011928219872, 120582000000, 
-5.713446511144937, 0.13604279912795642, 1.9056614162690089, 120587000000, 
-5.724390888664947, 0.17694984764547952, 1.903480579987107, 120592000000, 
-5.710957546142082, 0.16398889108981496, 1.9015013176450946, 120597000000, 
-5.768045080688689, 0.14999069095562523, 1.8993032149043345, 120602000000, 
-5.738881382475649, 0.0818956013098692, 1.897335752153006, 120607000000, 
-5.723229965289124, 0.13871967996833612, 1.8948677169155348, 120612000000, 
-5.757494026980083, 0.044219013172194545, 1.893219115225161, 120617000000, 
-5.738668823847025, 0.09592965973385797, 1.8907595783887903, 120622000000, 
-5.766247014922784, 0.058264797201764786, 1.8889887004815318, 120627000000, 
-5.7833382684943695, 0.06612892355616441, 1.886822972945083, 120632000000, 
-5.781070586880261, 0.04081472133441376, 1.8848234454159818, 120637000000, 
-5.790689601734424, 0.029108661264095288, 1.882743104118211, 120642000000, 
-5.802434683418792, 0.008194629126166642, 1.880853987714924, 120647000000, 
-5.800830325187291, 0.015987339666871984, 1.8788376791546075, 120652000000, 
-5.808064928748037, -0.012015515354789116, 1.8769221611959734, 120657000000, 
-5.8356731997404205, -0.0404794716154403, 1.8754531724899268, 120662000000, 
-5.810537267251788, -0.10134803760477316, 1.8734579671719553, 120667000000, 
-5.859968397495818, -0.034907814565418895, 1.8715365167670572, 120672000000, 
-5.871028001396073, -0.09120152715343989, 1.8696494976035245, 120677000000, 
-5.848085034013802, -0.09701165129143127, 1.8675370692368938, 120682000000, 
-5.829890621373928, -0.12350309085527315, 1.8661045461899635, 120687000000, 
-5.900795309243353, -0.16402987291774537, 1.8639526150417756, 120692000000, 
-5.857316816712084, -0.1377557991265161, 1.8619793800498285, 120697000000, 
-5.906721134024997, -0.1872382793037625, 1.8608142095983262, 120702000000, 
-5.89184740866859, -0.1687389494186304, 1.8580237449639254, 120707000000, 
-5.890332425218474, -0.22131977530956534, 1.8561487307764333, 120712000000, 
-5.928447767860105, -0.21594842771998676, 1.854081677762288, 120717000000, 
-5.916688459538596, -0.2421990030039685, 1.8527652568777488, 120722000000, 
-5.922738128000595, -0.2246427861481409, 1.8503168914681063, 120727000000, 
-5.92810267167712, -0.26895138445389605, 1.8482127435382714, 120732000000, 
-5.957393600178927, -0.25057841716505824, 1.8466489019494512, 120737000000, 
-5.940239580352556, -0.2867064930288862, 1.843560798701547, 120742000000, 
-5.917447623722412, -0.2776203268001781, 1.8415807661978076, 120747000000, 
-5.962400543919041, -0.29311732174416005, 1.839180557566227, 120752000000, 
-5.940271086689291, -0.37955013874541305, 1.8368887131587626, 120757000000, 
-5.980068957926806, -0.330149744873925, 1.8348231482381905, 120762000000, 
-5.988284813756101, -0.35118754155267534, 1.8322477850484178, 120767000000, 
-6.00075590903194, -0.3945962376535514, 1.8303615563045157, 120772000000, 
-6.017719276735238, -0.3970438661419576, 1.8276385596736213, 120777000000, 
-6.006468901316667, -0.41087151207196787, 1.8247137545462644, 120782000000, 
-5.989590246067222, -0.451142979114615, 1.8227238424357162, 120787000000, 
-6.03197261927058, -0.4461741098079711, 1.8205363222913407, 120792000000, 
5.34602274717688, -10.449407577128337, 1.814361241650356, 120797000000, 
1.9141280907396014, -1.390969439943294, 1.8132963192826952, 120802000000, 
0.9838009576001587, 3.525495177765798, 1.813805502792936, 120807000000, 
0.8313448040844726, 2.6385340645251887, 1.8147731114596706, 120812000000, 
0.9955807708851911, 3.1594090524397562, 1.8149724859551204, 120817000000, 
1.1173643153467099, 3.370930177295467, 1.8162943903178088, 120822000000, 
-4.726846521904616, 1.011281530196575, 1.818347914726782, 120827000000, 
-4.8410659709275246, 0.29055000111000095, 1.8207774140909614, 120832000000, 
-8.06240916936808, 0.39204340038260843, 1.8243672101892532, 120837000000, 
-4.766412009621314, 0.2459382963633801, 1.8270476547294026, 120842000000, 
-6.509619749132402, 0.38915676801259297, 1.8297454864993916, 120847000000, 
-6.078541478642117, 0.29561756590343324, 1.8321490466818213, 120852000000, 
-4.869113713678164, 0.22603231359831458, 1.8341752284445698, 120857000000, 
-6.6629322111491, 0.26520290050048523, 1.8380193118459525, 120862000000, 
-6.661585751588445, 0.35272429789523874, 1.8411736923253808, 120867000000, 
-6.128930584102533, 0.2535462859372231, 1.8434695056802042, 120872000000, 
-4.900240541882395, 0.17687116194096617, 1.845961167959762, 120877000000, 
-6.595938437154396, 0.2066958236738765, 1.8499679145168, 120882000000, 
-6.1257332590734395, 0.22748227125887763, 1.85242616952832, 120887000000, 
-5.673675650862658, 0.22796713961997178, 1.8553708101549746, 120892000000, 
-7.939020841305868, 0.23142485815605218, 1.8591356808453066, 120897000000, 
-6.187155567442837, 0.21636312806225547, 1.8612930871451816, 120902000000, 
-6.180129757927176, 0.1687334782842855, 1.8639158015450896, 120907000000, 
-4.968042260867618, 0.19400482452917264, 1.8669841773080027, 120912000000, 
-7.92424933611143, 0.20025858777262506, 1.8707670480365601, 120917000000, 
-4.983530972672716, 0.1475072985531207, 1.8727793175932421, 120922000000, 
-7.028866961534862, 0.1909843478515633, 1.8757546071895672, 120927000000, 
-4.988285318789202, 0.1253561978160052, 1.878386050019907, 120932000000, 
