acc_x, acc_y, angular_z, stamp, 
0.01235121488571167, 0.02088022232055664, 3.985411230274626e-10, 1707435819639062204, 
0.0033306479454040527, 0.02692592144012451, -3.2107637685063623e-06, 1707435819727138341, 
-0.0002206563949584961, -0.012521624565124512, 3.865451627885132e-10, 1707435819757142272, 
-0.013031005859375, -0.012558519840240479, 2.0351713120854848e-10, 1707435819787127104, 
-0.014806389808654785, 0.005494356155395508, 1.6978239806273967e-10, 1707435819799018561, 
0.013921678066253662, -0.003322601318359375, 1.8962812840869244e-10, 1707435819817230647, 
-0.0149763822555542, 0.01993805170059204, -1.4823991844576659e-06, 1707435819837331189, 
0.0011510252952575684, 0.010924279689788818, 1.2332048338017538e-10, 1707435819847190209, 
0.011967599391937256, -0.003336787223815918, -3.002266418706074e-06, 1707435819857116361, 
0.013601243495941162, -0.0016977787017822266, 8.202410190138037e-11, 1707435819867115852, 
-0.011543631553649902, -0.0034409165382385254, 4.7388750951654285e-11, 1707435819878626039, 
-0.02054530382156372, -0.02318960428237915, -3.521609690045174e-06, 1707435819887088580, 
-0.007905960083007812, -0.005105853080749512, 7.852180374508042e-11, 1707435819897145620, 
0.020798206329345703, -0.006870865821838379, 4.697624409858293e-11, 1707435819909560417, 
0.020712196826934814, 0.0020998716354370117, 4.7778006545395115e-11, 1707435819917299630, 
0.002706587314605713, -0.003236114978790283, 3.6683896868619314e-11, 1707435819927104028, 
0.00612872838973999, 0.00023102760314941406, 3.381705395803516e-11, 1707435819937193885, 
0.002556324005126953, 0.003963351249694824, -3.966875283801663e-12, 1707435819947175612, 
-0.03335380554199219, 0.012973427772521973, -3.2950628553806272e-12, 1707435819958585778, 
-0.013557851314544678, -0.026462256908416748, 1.837278481551694e-12, 1707435819967122268, 
0.01148444414138794, 0.0039612650871276855, -2.962951479367755e-06, 1707435819977180577, 
-0.006353020668029785, -0.00481104850769043, 6.8548651560544466e-12, 1707435819989570890, 
0.015097737312316895, 0.005868375301361084, 1.24083785337714e-11, 1707435819997375415, 
0.009762406349182129, 0.04007929563522339, -3.034385797975207e-06, 1707435820007196985, 
0.004233837127685547, 0.012933313846588135, -2.121360233412933e-12, 1707435820017234504, 
-0.00827181339263916, -0.004942774772644043, -7.087202851919538e-12, 1707435820027165870, 
0.01143348217010498, -0.0014101266860961914, 2.6033823015933428e-12, 1707435820038683695, 
0.018568694591522217, 0.00395512580871582, -3.490241104546293e-06, 1707435820047222595, 
-0.0013616085052490234, -0.007019937038421631, -5.426319929388636e-11, 1707435820057299687, 
-0.024561822414398193, -0.013972640037536621, -3.270608978705512e-11, 1707435820069636522, 
0.0022783875465393066, -0.012284696102142334, -7.02271410474775e-11, 1707435820077144595, 
0.023809611797332764, 0.01827627420425415, -2.979418622020383e-06, 1707435820087147513, 
0.00034564733505249023, -0.01593613624572754, -4.343589429333522e-11, 1707435820097195756, 
-0.02295374870300293, 0.0057045817375183105, -6.914539912183483e-11, 1707435820107108975, 
-0.010326147079467773, 0.009256422519683838, -1.4883456782991224e-06, 1707435820127134260, 
-0.021102547645568848, -0.003426671028137207, -3.9506077667276065e-11, 1707435820137119609, 
0.00598376989364624, -0.0033019185066223145, -4.038137326771297e-11, 1707435820149578094, 
-0.0012187361717224121, 0.016323566436767578, -1.2322468941775764e-11, 1707435820157122550, 
0.0024241209030151367, 0.0019330382347106934, -2.4509213592254665e-11, 1707435820167246815, 
-0.00647813081741333, 0.0037346482276916504, 3.3037309036139757e-12, 1707435820177124360, 
0.009688735008239746, 0.0054468512535095215, 7.294510145412878e-13, 1707435820187334678, 
0.004259943962097168, -0.021592259407043457, -2.5755272600633317e-06, 1707435820198906024, 
-0.0028519630432128906, -0.007150769233703613, 2.1560998364292155e-12, 1707435820207141179, 
-0.002900540828704834, -0.007246077060699463, 3.644766589521765e-12, 1707435820217575025, 
0.002573370933532715, -0.008876919746398926, 7.036240846088635e-12, 1707435820229737605, 
0.002573370933532715, -0.008876919746398926, -4.022415272904289e-06, 1707435820237146633, 
-0.02067708969116211, 0.0020224452018737793, 6.0902240736171756e-12, 1707435820247214682, 
-0.009845852851867676, -0.0069081783294677734, 2.5352587247475436e-11, 1707435820257136865, 
-0.04210728406906128, 0.01639789342880249, 4.408088815547987e-11, 1707435820267128391, 
-0.0006439685821533203, 0.01825582981109619, 5.2395650278414464e-11, 1707435820278636435, 
0.01559823751449585, 0.00029218196868896484, 8.871892738158295e-11, 1707435820287128264, 
0.019182145595550537, -0.02130645513534546, 7.595981922805684e-11, 1707435820297134165, 
-0.0004412531852722168, -0.013940274715423584, 6.187502956720995e-11, 1707435820309564611, 
0.010316431522369385, 0.009379148483276367, 8.307282915533559e-11, 1707435820317208192, 
0.04790496826171875, -0.010448932647705078, -2.9898916974406124e-06, 1707435820327175718, 
-0.009505987167358398, -0.021014690399169922, 5.0543054535621696e-11, 1707435820337158465, 
0.017300665378570557, -0.01027148962020874, 3.9921585334116486e-11, 1707435820347102905, 
0.015516042709350586, 0.009670555591583252, 2.5122450738896403e-11, 1707435820358616845, 
-0.025862455368041992, 0.007864713668823242, 3.4128912027261244e-11, 1707435820367102674, 
-0.031215667724609375, 0.00791919231414795, 2.9584527058124417e-11, 1707435820377128823, 
0.004653811454772949, 0.015019118785858154, 2.3433403544097852e-11, 1707435820389596636, 
0.01009446382522583, 0.011499166488647461, 2.5792667468686116e-11, 1707435820397138852, 
-0.01500314474105835, 0.018689393997192383, 3.564257321485943e-11, 1707435820407201245, 
-0.01143026351928711, 0.005997180938720703, 3.408141155222822e-11, 1707435820417305885, 
0.0065577030181884766, 0.005956590175628662, 4.311735337142006e-11, 1707435820427155844, 
0.017292916774749756, 0.00943821668624878, 4.201113139911478e-11, 1707435820439062564, 
-0.031137585639953613, 0.02016371488571167, -3.6869290520551577e-06, 1707435820447145703, 
0.033491551876068115, -0.02121967077255249, 4.377849937875751e-11, 1707435820457230590, 
0.02814251184463501, -0.008544921875, 2.421884045579279e-11, 1707435820469593373, 
-0.000698387622833252, 0.009293079376220703, 4.851090768602101e-11, 1707435820477143384, 
-0.009723126888275146, 0.007425904273986816, 2.192827668254711e-11, 1707435820487156684, 
-0.020566165447235107, 0.003681480884552002, -2.984609826115239e-06, 1707435820497141918, 
-0.0061588287353515625, 0.005460202693939209, 2.6653880575740112e-11, 1707435820507133103, 
-0.03296542167663574, 0.005508720874786377, 3.0951531233334596e-11, 1707435820518919669, 
-0.004180788993835449, 0.009011030197143555, 7.207326175598495e-11, 1707435820527160594, 
-0.002376258373260498, 0.014238953590393066, 5.612112837889214e-11, 1707435820537147292, 
-0.002255558967590332, 0.026781916618347168, -2.3831742630198644e-06, 1707435820549652327, 
0.031853318214416504, 0.015836775302886963, 7.64852930213729e-11, 1707435820557108062, 
0.03183013200759888, -0.01118689775466919, 4.7452260488275747e-11, 1707435820567232657, 
-0.025736689567565918, -0.011403203010559082, 7.314054064228386e-11, 1707435820577126008, 
0.010222136974334717, 0.002959132194519043, -2.9832589598042063e-06, 1707435820587115642, 
0.00484776496887207, -0.01679784059524536, 5.140165606605367e-11, 1707435820598684817, 
-0.00237274169921875, -0.0025014281272888184, 6.504963113909137e-11, 1707435820607144267, 
-0.013116717338562012, 0.0064699649810791016, 6.485108632335685e-11, 1707435820617367996, 
-0.004124999046325684, -0.025925397872924805, 1.2908705042031604e-10, 1707435820637145767, 
0.0013105273246765137, -0.020457983016967773, 6.489800737223779e-11, 1707435820647220239, 
-0.011240899562835693, 0.0011099576950073242, 6.731871523299885e-11, 1707435820657175497, 
-0.014747917652130127, 0.015532612800598145, 6.824110923099977e-11, 1707435820667151107, 
-0.016592979431152344, 0.017132937908172607, 5.945894631428259e-11, 1707435820678607217, 
0.010518908500671387, 0.004706680774688721, 1.1420835499857232e-10, 1707435820687165467, 
0.02482140064239502, 0.015325188636779785, 9.36026458995671e-11, 1707435820697191737, 
0.019457578659057617, 0.006354689598083496, 8.45605431038648e-11, 1707435820709619999, 
0.015839993953704834, 0.018873095512390137, 1.0454136354433225e-10, 1707435820717418499, 
0.006806433200836182, -0.011721372604370117, 7.604467844497685e-11, 1707435820727253335, 
0.013882696628570557, -0.02078312635421753, -2.9959649446427554e-06, 1707435820737200589, 
-0.011280477046966553, -0.011765718460083008, 5.0944223896090485e-11, 1707435820747200599, 
-0.02205979824066162, -0.00456768274307251, 2.892781377088367e-11, 1707435820759485047, 
-0.03277629613876343, 0.004439055919647217, 1.022954660024843e-10, 1707435820767441998, 
-0.004000246524810791, 0.01159745454788208, -2.9973673725746218e-06, 1707435820777384615, 
0.0085640549659729, 0.004337310791015625, 6.335673311196639e-11, 1707435820787353491, 
0.010365307331085205, -0.01183938980102539, 6.256179297380883e-11, 1707435820797203422, 
-0.0038834214210510254, -0.0027076005935668945, 6.08473051524524e-11, 1707435820807243634, 
0.017583489418029785, -0.002810955047607422, -2.9370557551432895e-06, 1707435820817390438, 
0.0103912353515625, 0.006190955638885498, 5.801333350267354e-11, 1707435820827200961, 
0.015753567218780518, -0.011725902557373047, 6.04182124416835e-11, 1707435820838660086, 
0.030003726482391357, 0.006193995475769043, 4.28127061798782e-11, 1707435820847152979, 
0.03350985050201416, 0.00625300407409668, 1.7434411545994695e-11, 1707435820857155803, 
-0.004336297512054443, -0.018889009952545166, 1.1760968515460014e-12, 1707435820867217635, 
-0.016986429691314697, -0.004487574100494385, -8.263588777439761e-13, 1707435820877169071, 
-0.009934484958648682, -0.000972747802734375, -2.294451921961278e-11, 1707435820887179146, 
-0.011772394180297852, 0.009809374809265137, -2.3597680770851454e-11, 1707435820897184359, 
-0.02606576681137085, 0.002735316753387451, -1.2461594323622773e-11, 1707435820907152403, 
-0.013473808765411377, 0.006318390369415283, -2.5861490976436042e-06, 1707435820918676309, 
0.015268981456756592, -0.0026520490646362305, -2.4496756656719617e-11, 1707435820927188611, 
0.004460394382476807, 0.0026976466178894043, -2.0869781294261872e-11, 1707435820937156105, 
0.000849306583404541, 0.033163487911224365, -2.4144059369584925e-11, 1707435820947222359, 
-0.02427142858505249, 0.011539816856384277, -2.7138748076527484e-11, 1707435820957160573, 
0.0404018759727478, -0.01895725727081299, -9.96719684769803e-12, 1707435820967187491, 
0.00970911979675293, -0.02988380193710327, -3.090897964161755e-11, 1707435820977225187, 
-0.000991523265838623, 0.0026236772537231445, -3.1276165941157426e-11, 1707435820987366040, 
0.013292074203491211, -0.002792060375213623, -2.054802208339457e-11, 1707435820998716173, 
-0.0028805136680603027, -0.00809711217880249, -2.80694909715247e-11, 1707435821007137925, 
-0.022721469402313232, -0.017134666442871094, -3.80132023267911e-11, 1707435821017134279, 
-0.026251256465911865, -0.011635839939117432, -2.944733585893952e-06, 1707435821027254936, 
-0.029763102531433105, -0.016927719116210938, -2.266482520627426e-11, 1707435821037150322, 
0.0007755756378173828, -0.015118539333343506, -2.0479275864925295e-11, 1707435821047178607, 
0.018839657306671143, 0.004826068878173828, -1.460500462928651e-11, 1707435821057158129, 
0.008103907108306885, 0.019278287887573242, -5.531539350698554e-12, 1707435821067149763, 
-0.000931859016418457, 0.013810276985168457, -8.104926662268112e-12, 1707435821079162647, 
-0.00808173418045044, -0.020252585411071777, -1.417657692943445e-12, 1707435821087170398, 
-0.0008087754249572754, -0.012910783290863037, -3.421207909393045e-12, 1707435821097176905, 
0.008036673069000244, 0.0030984878540039062, 3.0219581791092018e-12, 1707435821109690468, 
-0.016944289207458496, -0.012809157371520996, 1.6995799603044537e-12, 1707435821117220584, 
-0.022313356399536133, -0.005618453025817871, -2.9839921320288664e-06, 1707435821127207957, 
0.0011067986488342285, -0.023459434509277344, 9.73495313117596e-12, 1707435821137172929, 
-0.011403024196624756, 0.005352437496185303, 6.275890298968747e-12, 1707435821147156629, 
-0.0274045467376709, 0.005506634712219238, 8.10931886426278e-12, 1707435821158692020, 
-0.005849123001098633, 0.005413413047790527, 8.911373638011482e-12, 1707435821167154718, 
-0.0021597743034362793, 0.03235328197479248, 9.634485755260775e-12, 1707435821177173093, 
0.0051648616790771484, 0.025214076042175293, 6.952586089945267e-12, 1707435821189664691, 
0.01967930793762207, -0.005204677581787109, 1.0692823074479305e-11, 1707435821197178082, 
0.023165881633758545, 0.007165193557739258, 1.7313822420154326e-11, 1707435821207309860, 
0.005248725414276123, 0.012563049793243408, 1.813507741455017e-11, 1707435821217215065, 
-0.016168415546417236, -0.0016907453536987305, 1.8074454917846362e-11, 1707435821227159554, 
0.012460827827453613, -0.027001500129699707, 1.5081407946852686e-11, 1707435821238670252, 
0.02683568000793457, 0.014345049858093262, 2.0912120521083814e-11, 1707435821247153264, 
-0.0002033710479736328, 0.00882786512374878, 1.7977109220891746e-11, 1707435821257248982, 
-0.01632159948348999, -0.009077072143554688, 3.0684088283707646e-11, 1707435821277172318, 
-0.052103638648986816, 0.0035653114318847656, 2.7824159237496693e-11, 1707435821287212088, 
-0.012530863285064697, -9.119510650634766e-05, 2.5594540553991367e-11, 1707435821297210846, 
0.003741741180419922, 0.0035213828086853027, 3.031196987500826e-11, 1707435821307172389, 
-0.005191504955291748, 0.02317565679550171, 2.4226817550035998e-11, 1707435821319018301, 
-0.015821516513824463, 0.0016402006149291992, 4.167977141990597e-11, 1707435821327197309, 
0.002209484577178955, 0.0015638470649719238, 3.931896115189665e-11, 1707435821337410187, 
0.014823377132415771, 0.003281891345977783, 3.8798467827687705e-11, 1707435821349684075, 
-0.010153532028198242, 0.006958067417144775, 7.379063390312915e-11, 1707435821357187818, 
0.0328294038772583, -0.01482856273651123, 6.44398377537492e-11, 1707435821367191851, 
0.009612858295440674, -0.0361667275428772, 4.259359822890329e-11, 1707435821377178556, 
0.0005301237106323242, -0.01292407512664795, 2.986991266015636e-06, 1707435821387156061, 
-0.019094884395599365, 0.0034239888191223145, 3.630835012219466e-11, 1707435821399389260, 
-0.02095043659210205, -0.03438061475753784, 5.927485429776194e-11, 1707435821407153886, 
-0.017279744148254395, 0.01775515079498291, 4.753439191588446e-11, 1707435821417259628, 
-0.018768668174743652, 0.012655317783355713, 5.745378864305975e-11, 1707435821437153007, 
-0.02049177885055542, 0.003633558750152588, 2.5982120809024796e-11, 1707435821447183702, 
-0.013114631175994873, 0.003742516040802002, 1.4085161896569755e-11, 1707435821457162327, 
0.017461776733398438, 0.010853052139282227, 5.555003351773036e-12, 1707435821467144788, 
0.03193521499633789, -0.008796751499176025, 7.528097167834152e-12, 1707435821478730969, 
-0.039813458919525146, 0.0037813186645507812, 3.5175192229610485e-06, 1707435821487203507, 
0.0015330910682678223, 0.0019161701202392578, 2.926281043077778e-06, 1707435821497387876, 
-0.007283270359039307, -0.0033580660820007324, 7.261331506614549e-13, 1707435821509626738, 
-4.869699478149414e-05, -0.017742037773132324, -1.490161843978221e-11, 1707435821517325248, 
-0.0016819238662719727, -0.012185275554656982, -3.530748860263283e-11, 1707435821527198004, 
-0.02321261167526245, -0.006866276264190674, -3.2427567987324546e-11, 1707435821537190946, 
-0.04093056917190552, 0.009454071521759033, -4.288884438857982e-11, 1707435821547168816, 
-0.03893911838531494, 0.005870997905731201, -4.84636598624164e-11, 1707435821558974999, 
-0.008255064487457275, 0.01656973361968994, -6.894578050721545e-11, 1707435821567176929, 
-0.0169755220413208, 0.0076441168785095215, -5.3450320004612686e-11, 1707435821577216723, 
-0.0023801326751708984, 0.007657945156097412, -4.89459896715672e-11, 1707435821589694951, 
0.02828162908554077, 0.02553623914718628, 3.975605534981884e-06, 1707435821597191149, 
0.026570260524749756, -0.0032648444175720215, 2.969590439817158e-06, 1707435821607226891, 
-0.027180850505828857, -0.033788442611694336, -4.6131958246942325e-11, 1707435821617314481, 
0.01955515146255493, -0.012288272380828857, -6.382773993558678e-11, 1707435821627199491, 
0.03583860397338867, -0.0049474239349365234, -6.217917268536864e-11, 1707435821638710363, 
0.007100462913513184, -0.022874116897583008, -9.867315414997445e-11, 1707435821647142814, 
-0.007256269454956055, -0.015632331371307373, -9.984513253918697e-11, 1707435821657175258, 
0.0017450451850891113, -0.011951327323913574, -9.424561736305251e-11, 1707435821669660992, 
-0.035876452922821045, 0.01329106092453003, 3.961595587569738e-06, 1707435821677183451, 
-0.008810758590698242, 0.025946974754333496, 2.9801217416234176e-06, 1707435821687183364, 
-0.015946030616760254, 0.01509559154510498, 2.9824434472187973e-06, 1707435821697175505, 
-0.01581573486328125, 0.024059951305389404, -1.4098100228321086e-10, 1707435821707149768, 
-0.006724178791046143, 0.007840275764465332, -1.0712607234712283e-10, 1707435821719370056, 
0.011353075504302979, -0.006525576114654541, -1.0662668015515831e-10, 1707435821727200814, 
0.02212047576904297, 0.011299431324005127, -9.633625871840664e-11, 1707435821737436116, 
0.022272586822509766, -0.010178089141845703, -6.414591294807176e-11, 1707435821749684470, 
0.022272586822509766, -0.010178089141845703, -7.383937974846981e-11, 1707435821757226826, 
0.022219300270080566, 0.023848533630371094, 2.9755496450352507e-06, 1707435821767242425, 
0.0078011155128479, -0.021097242832183838, 2.995120334415966e-06, 1707435821777192611, 
0.0005825161933898926, 0.009399712085723877, -2.1476647918980364e-11, 1707435821787168819, 
0.007713198661804199, -0.0050106048583984375, -4.0517462003658725e-11, 1707435821798714916, 
-0.015642881393432617, -0.003219783306121826, -4.843307571819623e-11, 1707435821807190431, 
-0.03351187705993652, -0.0067365169525146484, -9.858112080619403e-12, 1707435821817284462, 
-0.015493214130401611, 0.0021465420722961426, 1.4804508210955655e-06, 1707435821837414702, 
-0.011446774005889893, 0.001941084861755371, 0.0, 1707435821847118566, 
0.011790215969085693, 0.02548736333847046, -0.0007052217621115535, 1707435821857176194, 
0.0008577108383178711, 0.007538139820098877, -0.001959424438132221, 1707435821867138544, 
0.026005566120147705, -0.004921019077301025, -0.0016400129716148215, 1707435821879004856, 
0.15506935119628906, -0.011934041976928711, 0.00022760732716080992, 1707435821887123686, 
0.3299137353897095, 0.03834408521652222, 0.012910922858990653, 1707435821897197223, 
0.9200566411018372, 0.21497869491577148, 0.048126984377174525, 1707435821909671402, 
1.2333834171295166, 0.41764962673187256, 0.17712098124299028, 1707435821917317605, 
1.2026193141937256, 0.45197534561157227, 0.19976673952339885, 1707435821927180107, 
1.3926911354064941, 0.08004611730575562, 0.21515252791056266, 1707435821937168197, 
1.3909006118774414, -0.10357058048248291, 0.1971068866045691, 1707435821947144749, 
0.9737887382507324, 0.01738971471786499, 0.15266951368764387, 1707435821958650320, 
0.7399083375930786, 0.2112981677055359, 0.19358216045045418, 1707435821967177492, 
0.8265230059623718, 0.14502006769180298, 0.16744683958563011, 1707435821977202280, 
1.008814811706543, -0.11902362108230591, 0.14743648336293452, 1707435821989712049, 
0.9533866047859192, -0.1741502285003662, 0.2644780768799631, 1707435821997431787, 
0.7509634494781494, 0.016174614429473877, 0.22639161221923973, 1707435822007201478, 
0.3903043270111084, 0.057679951190948486, 0.2360915757513631, 1707435822017336355, 
0.1799258589744568, -0.10145264863967896, 0.2601991752024582, 1707435822027209525, 
0.23339778184890747, -0.07439267635345459, 0.231710780130419, 1707435822039152074, 
0.6045083999633789, 0.24479025602340698, 0.3651573337236256, 1707435822047184677, 
0.9434835314750671, 0.3677029609680176, 0.3037540374647792, 1707435822057195456, 
0.8105404376983643, 0.12997782230377197, 0.32145503781213597, 1707435822067204213, 
0.703471302986145, 0.053486406803131104, 0.342199011757814, 1707435822077263260, 
0.570847749710083, 0.26700109243392944, 0.36048803463141255, 1707435822087257923, 
0.6102185249328613, 0.2991304397583008, 0.37529472028925803, 1707435822097229039, 
0.5304567217826843, 0.18378788232803345, 0.3857499167598399, 1707435822107262405, 
0.6715168952941895, 0.16852045059204102, 0.34696515707061043, 1707435822118724178, 
0.8053954839706421, 0.1816198229789734, 0.4630280784345388, 1707435822127417542, 
0.727314293384552, -0.05235403776168823, 0.4110751860347662, 1707435822137338960, 
0.33679598569869995, -0.03435850143432617, 0.43222040474709494, 1707435822147245907, 
0.22285890579223633, 0.030529439449310303, 0.4507332771708179, 1707435822157350513, 
0.5590477585792542, 0.4933393597602844, 0.47795710160080185, 1707435822167211123, 
1.0027719736099243, 0.4641039967536926, 0.47065369051168093, 1707435822177228468, 
1.0872430801391602, 0.00747990608215332, 0.47142080647547896, 1707435822187380489, 
0.8479065895080566, 0.04131990671157837, 0.4435566118693067, 1707435822198723937, 
0.3588367700576782, 0.5590070486068726, 0.6373963940484694, 1707435822207153647, 
0.3370329737663269, 0.33342617750167847, 0.5568065453320004, 1707435822217187139, 
0.40438175201416016, -0.4105704426765442, 0.5580392698431248, 1707435822227255956, 
0.48871713876724243, -0.2810339331626892, 0.5585889471988453, 1707435822237429160, 
0.9417861700057983, 0.5964767336845398, 0.5896946489032081, 1707435822247239262, 
0.775780439376831, 0.3531543016433716, 0.5763040994896494, 1707435822257176425, 
0.5085314512252808, 0.006498277187347412, 0.5691171516979817, 1707435822267174171, 
0.4915989637374878, 0.11812299489974976, 0.5089185287239623, 1707435822278805573, 
0.6969224810600281, 0.39795833826065063, 0.7467183996011459, 1707435822287132753, 
0.7523514628410339, 0.5107014775276184, 0.6304721693064191, 1707435822297188652, 
0.43456459045410156, 0.5101445913314819, 0.6293911314849006, 1707435822307211966, 
0.05258280038833618, 0.10120135545730591, 0.6335077766271201, 1707435822317154521, 
0.522026777267456, 0.11543196439743042, 0.6247696056008838, 1707435822327305380, 
0.6361936330795288, 0.24158704280853271, 0.6333327736856352, 1707435822337192356, 
0.29064011573791504, 0.17503786087036133, 0.6073667110229761, 1707435822347166393, 
0.0032445788383483887, 0.22672420740127563, 0.4851088813620972, 1707435822359249368, 
0.032729506492614746, -0.13436150550842285, 0.731286143028477, 1707435822367151274, 
0.9643242955207825, -0.12627393007278442, 0.5721400473304064, 1707435822377199354, 
0.495755136013031, 0.6765486598014832, 0.5536971668307202, 1707435822387235639, 
-0.06191825866699219, 0.1126055121421814, 0.538846164713414, 1707435822397229179, 
-0.054588139057159424, -0.18765652179718018, 0.5428178840378546, 1707435822407218193, 
-0.005976259708404541, 0.1670183539390564, 0.5460239772363175, 1707435822417352500, 
-0.18223720788955688, 0.2984294891357422, 0.5773136360447292, 1707435822427195113, 
-0.2241908311843872, 0.4176718592643738, 0.475397664147949, 1707435822439270846, 
-0.42040175199508667, -0.4756441116333008, 0.7169768322082536, 1707435822447190002, 
0.10478579998016357, -0.21926182508468628, 0.5512647753998399, 1707435822457508108, 
-0.05988883972167969, 1.5117095708847046, 0.5843953306126222, 1707435822467215621, 
-0.628009021282196, 0.6009114980697632, 0.5572609806822449, 1707435822477223046, 
0.12942999601364136, -0.23154717683792114, 0.5613133309785444, 1707435822487189080, 
-0.008264601230621338, -0.4772455096244812, 0.5698545799030158, 1707435822497240436, 
0.08985269069671631, 0.10066312551498413, 0.6082259787736983, 1707435822507139672, 
0.1318897008895874, 0.9816829562187195, 0.52943966055555, 1707435822518763175, 
-0.1784490942955017, -0.26685935258865356, 0.7139060578795311, 1707435822527180370, 
-0.12588125467300415, -0.245183527469635, 0.6034567717481271, 1707435822537181666, 
0.08181965351104736, 0.38747042417526245, 0.47815362189389976, 1707435822549759589, 
0.08181965351104736, 0.38747042417526245, 0.7977704010356158, 1707435822557206851, 
0.33837878704071045, 0.42914849519729614, 0.5991604046059155, 1707435822567195104, 
0.43489187955856323, -0.08302503824234009, 0.5850183844067007, 1707435822577189739, 
-0.16124147176742554, 0.10692155361175537, 0.5769364651725957, 1707435822587168291, 
-0.313157320022583, 0.7653616666793823, 0.4769249174081456, 1707435822599080541, 
-0.3426203727722168, -0.4122668504714966, 0.6856801297796236, 1707435822607160046, 
-0.20168983936309814, -0.274838924407959, 0.5466644245896147, 1707435822617518901, 
0.22454512119293213, 0.05051964521408081, 0.5881634854111554, 1707435822637478443, 
0.43827617168426514, 0.3652195930480957, 0.6221640136337668, 1707435822647249132, 
0.009644031524658203, 0.3068719506263733, 0.6045081385797145, 1707435822657206219, 
-0.7208612561225891, 0.1894092559814453, 0.6081876340620753, 1707435822667190347, 
-0.5200239419937134, 0.3214103579521179, 0.518715788252283, 1707435822679186107, 
-0.14554816484451294, -0.2603282928466797, 0.7795402481383887, 1707435822687189698, 
-0.19369184970855713, 0.4780888557434082, 0.6210018436229958, 1707435822697273510, 
0.19994157552719116, 0.8117550015449524, 0.4909917764709352, 1707435822709711831, 
0.12109124660491943, -0.5148319602012634, 0.7636703880335517, 1707435822717435072, 
-0.24038368463516235, -0.040429115295410156, 0.5977001878627572, 1707435822727202025, 
-0.04713946580886841, 0.7544849514961243, 0.5730781386302216, 1707435822737201304, 
-0.2490983009338379, 0.571020245552063, 0.5729241524266404, 1707435822747147665, 
0.10825729370117188, 0.23594975471496582, 0.4983754089913247, 1707435822758841721, 
0.11539024114608765, -0.5226903557777405, 0.7246989889839471, 1707435822767171757, 
0.07558053731918335, 0.38536280393600464, 0.6231018621412513, 1707435822777193864, 
-0.036765098571777344, -0.35582512617111206, 0.6068853472494495, 1707435822797313543, 
-0.1631011962890625, -0.17928016185760498, 0.616264787095334, 1707435822807115374, 
-0.4881312847137451, 0.48712384700775146, 0.593284781795625, 1707435822817425647, 
0.476226806640625, 0.9165018796920776, 0.6408458258506105, 1707435822827197654, 
0.22029006481170654, 0.5262675285339355, 0.5524799086613085, 1707435822838715890, 
0.15264564752578735, -0.44810950756073, 0.7616919969093998, 1707435822847188953, 
0.107097327709198, 0.05468708276748657, 0.6503826764252224, 1707435822857216361, 
-0.29249435663223267, 0.7091483473777771, 0.5132543412616944, 1707435822869766189, 
-0.5950024127960205, 0.004354536533355713, 0.8473849037567242, 1707435822877235428, 
-0.35656213760375977, -0.01378774642944336, 0.6225523803660873, 1707435822887268624, 
-0.04296296834945679, 0.37116748094558716, 0.6228693147947114, 1707435822897204114, 
0.4464779496192932, 0.25681978464126587, 0.6202172047148558, 1707435822907249467, 
0.45786362886428833, 0.34445685148239136, 0.5438671204646983, 1707435822918790694, 
-0.3995403051376343, -0.3744543194770813, 0.7527950493871786, 1707435822927197044, 
-0.35010963678359985, 0.41327232122421265, 0.6330513126366898, 1707435822937229527, 
-0.4257969260215759, 0.7286127805709839, 0.4962649394356066, 1707435822949784433, 
0.24465787410736084, -0.14098018407821655, 0.827920975775233, 1707435822957213998, 
0.9492398500442505, 0.15272802114486694, 0.6061958254972658, 1707435822967209249, 
0.1310131549835205, 0.2810399532318115, 0.5891704897501976, 1707435822977235954, 
-0.06844782829284668, 0.41146838665008545, 0.5864218833640973, 1707435822987170015, 
-0.23475974798202515, 0.5429144501686096, 0.44319842141138194, 1707435823000015154, 
-0.07223367691040039, -0.19537615776062012, 0.8020311022369908, 1707435823007167895, 
-0.009474635124206543, 0.4160618185997009, 0.5873068745795733, 1707435823017328901, 
-0.19569087028503418, -0.7178524136543274, 0.6216508331271999, 1707435823037196119, 
-0.13004052639007568, 0.008507609367370605, 0.6315298562087778, 1707435823047274192, 
-0.646457314491272, 0.6246643662452698, 0.6376296424447373, 1707435823057230392, 
0.2007783055305481, 0.19990134239196777, 0.6398139563052754, 1707435823067199292, 
0.06746447086334229, 0.4158000349998474, 0.5441972221954077, 1707435823078725124, 
-0.6847363114356995, -0.2274792194366455, 0.7405220731868583, 1707435823087201704, 
1.156416893005371, 1.0938166379928589, 0.6294615862057139, 1707435823097235265, 
0.14112478494644165, 1.0589933395385742, 0.49947366898238627, 1707435823109765037, 
0.463820219039917, -0.4885154962539673, 0.8475155487037277, 1707435823117353974, 
0.5993411540985107, 0.025079190731048584, 0.6576633650659913, 1707435823127230560, 
-0.3823358416557312, 0.29605162143707275, 0.6413391776784161, 1707435823137239954, 
-0.5113832950592041, 0.22452902793884277, 0.649002864836407, 1707435823147190248, 
-0.7591643333435059, -0.05367344617843628, 0.5453749508101556, 1707435823158849810, 
-0.32553648948669434, -0.48216962814331055, 0.7614622773313016, 1707435823167196323, 
0.3105943202972412, 0.8549293279647827, 0.628625443005654, 1707435823177254096, 
0.7368341684341431, 0.7885965704917908, 0.48559112396627235, 1707435823189775604, 
0.1272740364074707, -0.47439390420913696, 0.7961775945222125, 1707435823197461940, 
-0.4946802258491516, 0.03889364004135132, 0.6406479834384348, 1707435823207244692, 
-0.5648759007453918, 0.46494853496551514, 0.6199425372221486, 1707435823217290281, 
-0.5376195907592773, 0.9727267026901245, 0.6176480326024978, 1707435823227189743, 
0.21513831615447998, 0.3266451954841614, 0.5057103372622667, 1707435823238845132, 
-0.18390250205993652, -0.8775981664657593, 0.6895864412361229, 1707435823247197606, 
0.48089438676834106, 0.458288311958313, 0.5721967072232879, 1707435823257227404, 
-0.26072943210601807, 1.1182961463928223, 0.4520559042051052, 1707435823269746546, 
0.13123160600662231, -0.38849377632141113, 0.7625419271796444, 1707435823277237986, 
0.23899340629577637, -0.5592838525772095, 0.5883330685582181, 1707435823287257993, 
-0.48725467920303345, -0.015750229358673096, 0.6153350988468494, 1707435823297233783, 
0.2281193733215332, 0.6572532057762146, 0.6226778455919908, 1707435823307246509, 
0.13043993711471558, 0.7181583046913147, 0.5039351128415316, 1707435823319482480, 
0.2609812617301941, -0.10164636373519897, 0.7966041867918058, 1707435823327228730, 
-0.16091442108154297, 0.37944525480270386, 0.6079611864330066, 1707435823337492380, 
-0.4275652766227722, 0.49405598640441895, 0.5073418379847786, 1707435823349758706, 
0.09817975759506226, 0.27898746728897095, 0.8209380769537497, 1707435823357261816, 
-0.035346388816833496, 0.5914420485496521, 0.6052842255040628, 1707435823367261610, 
0.07725727558135986, 0.276472270488739, 0.6003276034152535, 1707435823377256485, 
-0.0205153226852417, 0.21448272466659546, 0.5918983492547596, 1707435823387418145, 
0.21261292695999146, 0.03130960464477539, 0.5304125275760038, 1707435823398798919, 
0.1786719560623169, -0.20109164714813232, 0.7126706078135914, 1707435823407261477, 
-0.2272176742553711, 0.5555388927459717, 0.584408304350065, 1707435823417380549, 
-0.19563734531402588, 0.17285555601119995, 0.584280219086438, 1707435823427335768, 
0.23776280879974365, -0.41712498664855957, 0.5833910987292837, 1707435823437270515, 
0.2018580436706543, 0.4191756248474121, 0.5624875566317861, 1707435823447478297, 
-0.11753928661346436, -0.16565829515457153, 0.5681483183646799, 1707435823457510651, 
-0.16833317279815674, 0.07695591449737549, 0.5716895089790104, 1707435823467418489, 
-0.40920257568359375, 0.09435921907424927, 0.4863559293450145, 1707435823479096045, 
-0.14157021045684814, 0.9257568717002869, 0.7021044415398496, 1707435823487248284, 
-0.22393518686294556, 0.11088675260543823, 0.5431592719142523, 1707435823497688291, 
0.4301731586456299, -0.36031490564346313, 0.593304945979822, 1707435823507303257, 
0.40059828758239746, 1.0863991975784302, 0.5927516422848811, 1707435823517252772, 
-0.32275426387786865, 0.6478742957115173, 0.5928745529389611, 1707435823527262461, 
-0.18249118328094482, 0.07407665252685547, 0.5963497426167927, 1707435823537249184, 
-0.1381525993347168, -0.3609449863433838, 0.596285471346189, 1707435823547202598, 
-0.15873879194259644, -0.23926961421966553, 0.4988412643519127, 1707435823559141808, 
-0.016632437705993652, 1.0998903512954712, 0.7465050135155309, 1707435823567222496, 
0.18981283903121948, 0.01584392786026001, 0.5863974252153596, 1707435823577265705, 
-0.092754065990448, -0.7723008394241333, 0.5852567159066762, 1707435823587265482, 
-0.3426060676574707, 0.8100237250328064, 0.5893416293208082, 1707435823597442909, 
-0.34686940908432007, 0.7435007691383362, 0.6131717772809746, 1707435823607244019, 
0.2291419506072998, 0.48936885595321655, 0.6133907972862098, 1707435823617216630, 
0.5976476073265076, -0.028622865676879883, 0.6150787613472652, 1707435823627216375, 
-0.06758379936218262, -0.23289793729782104, 0.5123653212158066, 1707435823639237684, 
-0.24805915355682373, 0.9813180565834045, 0.7920705709238178, 1707435823647175100, 
-0.5662331581115723, 0.015157461166381836, 0.6151312258556357, 1707435823657257062, 
-0.2833424210548401, -0.38925695419311523, 0.6176096590129385, 1707435823667247162, 
-0.16999995708465576, 0.657577395439148, 0.6201386450498912, 1707435823677244027, 
-0.07381176948547363, 0.2626093626022339, 0.6145976935347112, 1707435823687230217, 
0.2612919211387634, 0.35426801443099976, 0.6255688006842165, 1707435823697205078, 
0.19326317310333252, 0.03875851631164551, 0.6312660354102542, 1707435823707200270, 
-0.10734176635742188, -0.05462521314620972, 0.5350433273502505, 1707435823719103338, 
-0.5804526209831238, 0.5653449892997742, 0.7962630230430657, 1707435823727239591, 
-0.10873395204544067, -0.09935283660888672, 0.6403740758350187, 1707435823737243145, 
0.07125943899154663, 0.13796955347061157, 0.6273539980296482, 1707435823747292511, 
0.28149354457855225, 0.9625407457351685, 0.6210419505310257, 1707435823757280882, 
0.27370911836624146, 0.09172695875167847, 0.6029670511128319, 1707435823767265862, 
-0.16081523895263672, -0.09123611450195312, 0.6044494224607927, 1707435823777269447, 
-0.21925824880599976, 0.3745988607406616, 0.6016031951980663, 1707435823787488791, 
-0.15440160036087036, 0.2667340040206909, 0.5519970168449381, 1707435823798821624, 
0.03415471315383911, 0.6260100603103638, 0.7564719471266868, 1707435823807220443, 
-0.042978107929229736, -0.4722933769226074, 0.6137425423225638, 1707435823817590215, 
0.4793051481246948, -0.43350493907928467, 0.6603635175707784, 1707435823827284354, 
0.04429161548614502, 0.9656893014907837, 0.6224385382130017, 1707435823837361975, 
-0.008417367935180664, 0.4241328835487366, 0.6057403179595977, 1707435823847275267, 
0.12829375267028809, -0.06524503231048584, 0.5905528027867484, 1707435823857261416, 
-0.23322910070419312, -0.11556196212768555, 0.5933525887695187, 1707435823867216441, 
-0.00805807113647461, 0.5926566123962402, 0.5202997676033453, 1707435823878847175, 
-0.036659955978393555, 1.345420479774475, 0.7350492676206926, 1707435823887204901, 
0.2299480438232422, -0.14015454053878784, 0.606601610698622, 1707435823897227436, 
0.04865217208862305, -0.5838635563850403, 0.614909961066384, 1707435823907252768, 
0.1860436201095581, 0.7120757699012756, 0.6188963531420449, 1707435823917315466, 
-0.5987382531166077, 0.35386520624160767, 0.6247233381891671, 1707435823927229945, 
-0.4362832307815552, -0.2645006775856018, 0.6206020634068404, 1707435823937226333, 
-0.04665791988372803, -0.23355549573898315, 0.6123715630868228, 1707435823947209891, 
0.16574889421463013, 0.3165247440338135, 0.4948219045640652, 1707435823959522443, 
1.146328330039978, 1.3392118215560913, 0.7866945762995573, 1707435823967238557, 
0.09496188163757324, -0.31367844343185425, 0.6041566456154626, 1707435823977285847, 
-0.26238560676574707, -0.33082324266433716, 0.500529354315852, 1707435823989756165, 
-0.3414555788040161, 0.9923003911972046, 0.8346865742361794, 1707435823997292909, 
-0.4140666723251343, 0.4473639130592346, 0.5969767533679928, 1707435824007664234, 
0.3101327419281006, -0.05722332000732422, 0.6281681896746149, 1707435824017368140, 
0.17688941955566406, -0.22511929273605347, 0.6007580081879714, 1707435824027264496, 
-0.2719952464103699, 0.5057994723320007, 0.513503603068598, 1707435824038788909, 
-0.5426164865493774, 1.4028762578964233, 0.6970254072445744, 1707435824047218782, 
-0.3863638639450073, -0.6429640650749207, 0.5797919388528864, 1707435824057264250, 
-0.011616528034210205, -0.834761917591095, 0.6070804335404284, 1707435824067263779, 
0.3991183042526245, 0.6753623485565186, 0.6302355483691596, 1707435824077269072, 
-0.04476207494735718, 0.2921661138534546, 0.6281171551202042, 1707435824087518298, 
0.02384430170059204, 0.3168731927871704, 0.6655511901757973, 1707435824097237331, 
-0.45499616861343384, 0.02606642246246338, 0.6380248975023324, 1707435824107233048, 
-0.280659019947052, 0.38120269775390625, 0.5186997258560003, 1707435824119591943, 
-0.17442762851715088, 1.1939250230789185, 0.8253976463172595, 1707435824127223641, 
0.2715722322463989, -0.3022701144218445, 0.6072240652199706, 1707435824137246218, 
0.7278630137443542, 0.08374941349029541, 0.6046048328730952, 1707435824147269303, 
-0.1500539779663086, 0.8622398376464844, 0.5984286219815076, 1707435824157243914, 
-0.05125606060028076, 0.06411057710647583, 0.5931286049789458, 1707435824167266685, 
-0.35888028144836426, -0.04143267869949341, 0.6023502707200017, 1707435824177261682, 
-0.34121572971343994, -0.10037416219711304, 0.6038033104350881, 1707435824187242760, 
0.16504591703414917, -0.01040041446685791, 0.5244998182908985, 1707435824199081924, 
-0.035995543003082275, 0.6272915601730347, 0.7730098053713915, 1707435824207225683, 
0.16972827911376953, -0.2569519281387329, 0.6216225098883148, 1707435824217352187, 
-0.07510614395141602, 1.1306486129760742, 0.6236680947495019, 1707435824237514399, 
-0.2779381275177002, 0.1289960741996765, 0.6280082327147334, 1707435824247304949, 
0.03475332260131836, -0.08875936269760132, 0.6237131672750597, 1707435824257264172, 
-0.3113635778427124, -0.2939794063568115, 0.6097597975939854, 1707435824267417884, 
-0.2178800106048584, 0.7078242897987366, 0.5193686215491892, 1707435824279261727, 
0.26107704639434814, 1.1383024454116821, 0.7471474808806722, 1707435824287240514, 
0.6262841820716858, -0.46085554361343384, 0.5848117088830608, 1707435824297271616, 
0.23355752229690552, -0.19631028175354004, 0.5992571349724363, 1707435824307252996, 
-0.5003358721733093, 0.8189677596092224, 0.600109922191007, 1707435824317256167, 
-0.3386716842651367, 0.31500595808029175, 0.6007512663779877, 1707435824327241961, 
-0.15257084369659424, -0.06830918788909912, 0.606101934203441, 1707435824337248092, 
0.2168205976486206, -0.3278214931488037, 0.6234963408640676, 1707435824347215506, 
0.04951202869415283, 0.2870479226112366, 0.5397308142932794, 1707435824359094358, 
0.0815538763999939, 0.834636390209198, 0.7939917874537787, 1707435824367208228, 
-0.21097064018249512, -0.13970035314559937, 0.6398905986062577, 1707435824377256986, 
-0.4202558994293213, 0.007538437843322754, 0.511521658426121, 1707435824389826835, 
-0.38048070669174194, 0.6878966689109802, 0.8485925696287868, 1707435824397272991, 
0.04755038022994995, 0.43185579776763916, 0.5426214377654324, 1707435824408608457, 
0.9823204278945923, 0.4275550842285156, 0.6682244370085004, 1707435824417380222, 
0.24053049087524414, -0.10850071907043457, 0.5748505223154778, 1707435824427257684, 
-0.33536016941070557, 0.13857245445251465, 0.4930088266709555, 1707435824438835559, 
-0.035543859004974365, 0.44881194829940796, 0.6779511296563039, 1707435824447255901, 
-0.46188879013061523, -0.46666717529296875, 0.5580330699672459, 1707435824457573656, 
-0.3117694854736328, 0.19097965955734253, 0.6023215305613397, 1707435824467294790, 
0.07234424352645874, 0.6150585412979126, 0.6003853184133983, 1707435824477289130, 
0.1744404435157776, 0.16078400611877441, 0.6254360124376582, 1707435824487292767, 
0.2427605390548706, 0.5093240737915039, 0.641869048101662, 1707435824497280360, 
-0.22355937957763672, 0.08879941701889038, 0.6521675748228838, 1707435824507214438, 
-0.19767773151397705, 0.551283061504364, 0.5517833438698148, 1707435824518957003, 
-0.030068159103393555, 0.44794023036956787, 0.7682897284482922, 1707435824527252190, 
-0.305891752243042, -0.2829066514968872, 0.6345548958802866, 1707435824537270843, 
0.1969360113143921, 0.3861392140388489, 0.6316004303112674, 1707435824547294536, 
-0.1882990002632141, 0.359064519405365, 0.6339382655037976, 1707435824557247140, 
0.2015213966369629, 0.01345670223236084, 0.6378326640622283, 1707435824567279817, 
0.006822764873504639, 0.6165750026702881, 0.6447781099081363, 1707435824577264043, 
-0.23448199033737183, 0.018767476081848145, 0.650596456124953, 1707435824587282647, 
-0.12271338701248169, 0.3963608145713806, 0.5351764787790951, 1707435824599535544, 
-0.3194466829299927, -0.0319976806640625, 0.8412410019977481, 1707435824607256154, 
0.3097439408302307, -0.5931553244590759, 0.6251085718319265, 1707435824617613607, 
-0.0110856294631958, 0.4213554263114929, 0.6205553144806569, 1707435824637587657, 
-0.1263037919998169, -0.27094268798828125, 0.6246871310984593, 1707435824647300297, 
-0.2809392809867859, 0.4212169647216797, 0.59480530285843, 1707435824657304070, 
-0.18725258111953735, 0.31632643938064575, 0.5956846815325088, 1707435824667276382, 
0.21746522188186646, 1.232994556427002, 0.4981123783282681, 1707435824679172114, 
0.13587743043899536, 0.16507232189178467, 0.7299319156314763, 1707435824687289080, 
0.3844865560531616, -0.7824368476867676, 0.6123536284550581, 1707435824697266713, 
-0.0028873085975646973, 0.6036268472671509, 0.6069780458100082, 1707435824707335113, 
-0.7150818109512329, 0.410633385181427, 0.6049360756917241, 1707435824717396351, 
-0.23773449659347534, -0.34280675649642944, 0.6174372280752454, 1707435824727346760, 
0.03927582502365112, -0.18895399570465088, 0.6159061493103825, 1707435824737299545, 
0.534593403339386, 0.06289756298065186, 0.6164460998596264, 1707435824747336869, 
0.48994332551956177, 1.0582849979400635, 0.5184226590699762, 1707435824759133918, 
0.25385016202926636, 0.40469884872436523, 0.737831405590271, 1707435824767312899, 
-0.22705185413360596, -0.3924117684364319, 0.6155247695923681, 1707435824777333684, 
-0.4475405812263489, 0.6098213195800781, 0.6180671837350317, 1707435824787331760, 
-0.07615059614181519, 0.19385439157485962, 0.5942759104457067, 1707435824797607327, 
0.6310358643531799, 0.5765270590782166, 0.6007639097153473, 1707435824807550588, 
0.06492644548416138, 0.051544368267059326, 0.5833950137369633, 1707435824817438262, 
-0.5299118757247925, 0.6294200420379639, 0.5826676111024487, 1707435824827337471, 
-0.3729204535484314, -0.19731175899505615, 0.5071246899666458, 1707435824838798099, 
-0.07377505302429199, -0.547814130783081, 0.7023815736606717, 1707435824847310008, 
0.29489314556121826, 0.728680431842804, 0.6247151125171462, 1707435824857334762, 
-0.006739675998687744, 0.24302315711975098, 0.6389107361311923, 1707435824867329366, 
0.10738557577133179, 0.13803303241729736, 0.6449874883111429, 1707435824877301758, 
-0.03668546676635742, 0.43043261766433716, 0.6401723815299666, 1707435824887348422, 
-0.33533215522766113, 0.462746262550354, 0.6375417158631573, 1707435824897285064, 
-0.2104642391204834, 0.7438312768936157, 0.6278416312344439, 1707435824907290392, 
-0.2537316679954529, -0.15903210639953613, 0.5145757747346319, 1707435824919323419, 
0.037514448165893555, 0.05193305015563965, 0.7733221506323456, 1707435824927298637, 
0.45178794860839844, 1.0522024631500244, 0.6173375677558471, 1707435824937299993, 
-0.07520061731338501, -0.07013076543807983, 0.6060649956057849, 1707435824947330510, 
-0.024003565311431885, -0.32678282260894775, 0.6093685643180693, 1707435824957305876, 
-0.0810326337814331, 0.356098473072052, 0.6115077027830544, 1707435824967288999, 
-0.5400155782699585, 0.1318395733833313, 0.6106456260636451, 1707435824977278413, 
-0.33765870332717896, 0.40139710903167725, 0.6109928063077397, 1707435824987254944, 
-0.18919092416763306, -0.34739118814468384, 0.5149382588067241, 1707435824998939735, 
0.45878398418426514, 0.3097527027130127, 0.7308744037777967, 1707435825007245280, 
0.37848764657974243, 1.0183557271957397, 0.6156019835714713, 1707435825017294371, 
-0.0987389087677002, -0.23758471012115479, 0.6158080816378325, 1707435825027355912, 
-0.34792691469192505, -0.037908196449279785, 0.6307981485845169, 1707435825037291684, 
-0.5068974494934082, 0.5089712738990784, 0.6214014660296084, 1707435825047439031, 
-0.025568842887878418, 0.4560878276824951, 0.6376436280755712, 1707435825057311582, 
0.008408129215240479, 0.3508262038230896, 0.6311907810193202, 1707435825067293643, 
0.28708773851394653, -0.4591847062110901, 0.530478095181404, 1707435825079070511, 
0.5223512649536133, 0.2893557548522949, 0.7667742816460553, 1707435825087298462, 
-0.13793349266052246, 1.240195631980896, 0.6311148306376667, 1707435825097310030, 
-0.389487087726593, 0.07029318809509277, 0.49989937158337955, 1707435825109842759, 
0.0673176646232605, -0.17807650566101074, 0.836322627785475, 1707435825117527498, 
-0.10389119386672974, 0.06221956014633179, 0.6502496950028526, 1707435825127676431, 
0.4352654814720154, 0.27066874504089355, 0.6932963211932045, 1707435825137333265, 
0.008683383464813232, 0.7840359210968018, 0.668089327095499, 1707435825147289139, 
-0.19316178560256958, -0.3880152106285095, 0.5550839650837437, 1707435825158963473, 
-0.11573523283004761, 0.014540553092956543, 0.7754574760351219, 1707435825167320299, 
-0.41307705640792847, 0.989656388759613, 0.640595270783868, 1707435825177302047, 
0.3804504871368408, 0.2979506850242615, 0.6158550490015189, 1707435825187356315, 
0.1998865008354187, 0.24479997158050537, 0.6067993461909857, 1707435825197289026, 
0.15366625785827637, -0.08595436811447144, 0.5805895327385995, 1707435825207304535, 
-0.16480064392089844, 0.10458248853683472, 0.566101405428478, 1707435825217446115, 
-0.04510653018951416, 0.5450278520584106, 0.5829099513468172, 1707435825227276446, 
-0.15512293577194214, -0.4010012745857239, 0.45188777795574014, 1707435825239828855, 
-0.3005804419517517, -0.10962837934494019, 0.7777677880009023, 1707435825247273766, 
-0.0209958553314209, 0.5825677514076233, 0.5717151370520261, 1707435825257574474, 
-0.30264008045196533, 0.003587484359741211, 0.6033188324881589, 1707435825267395901, 
0.3488505482673645, 0.425720751285553, 0.6071291771981887, 1707435825277313242, 
0.0831497311592102, 0.26929765939712524, 0.6051611823458016, 1707435825287348514, 
0.12745702266693115, 0.3217012882232666, 0.625313616572486, 1707435825297309358, 
-0.1083364486694336, 0.29965633153915405, 0.6271724884677738, 1707435825307350147, 
-0.33886921405792236, -0.16560423374176025, 0.5369668622887785, 1707435825318986916, 
-0.1422005295753479, 0.8510749340057373, 0.7443807709064618, 1707435825327332931, 
0.2101726531982422, 0.9190695285797119, 0.5925850656808066, 1707435825337583371, 
0.2901778817176819, -0.3340696096420288, 0.6141937978872302, 1707435825347350703, 
-0.03668326139450073, 0.023858845233917236, 0.6073714627210351, 1707435825357340323, 
-0.17032164335250854, 0.4369664192199707, 0.6073161971148185, 1707435825367462699, 
-0.44394558668136597, 0.4429008364677429, 0.6352386781036897, 1707435825377344635, 
0.007154285907745361, 0.1253630518913269, 0.6247390988480473, 1707435825387557022, 
0.11420190334320068, -0.565828800201416, 0.5786941298273006, 1707435825398907353, 
0.24715811014175415, 0.5175175666809082, 0.8062172865783344, 1707435825407291459, 
0.14347267150878906, 0.8436646461486816, 0.6682229009181145, 1707435825417317897, 
-0.17605727910995483, -0.05432760715484619, 0.6578844703112171, 1707435825427352390, 
-0.30138999223709106, 0.024880588054656982, 0.6581195447668643, 1707435825437294980, 
-0.45511937141418457, 0.28529173135757446, 0.6455347474106531, 1707435825447324645, 
0.26785457134246826, 1.1181155443191528, 0.6416944111673052, 1707435825457284300, 
0.4325503706932068, 0.2686324119567871, 0.6217775148508748, 1707435825467279210, 
0.65274578332901, -0.6891977190971375, 0.5261810367104252, 1707435825478954661, 
-0.17562055587768555, 0.5056288242340088, 0.7378155861864496, 1707435825487296127, 
-0.31803131103515625, 0.7305430173873901, 0.6049247137039453, 1707435825497330610, 
-0.35408514738082886, -0.4791349768638611, 0.6036115333022193, 1707435825507336730, 
-0.3098454475402832, -0.3374713063240051, 0.5999201390894988, 1707435825517434355, 
0.35783547163009644, 0.27153950929641724, 0.6166177787011744, 1707435825527347421, 
0.2189720869064331, 0.9405864477157593, 0.617875974512208, 1707435825537308512, 
-0.03910994529724121, 0.34019631147384644, 0.6099556074265222, 1707435825547317871, 
-0.10868632793426514, -0.5452257990837097, 0.5025488383364491, 1707435825559603157, 
-0.31302231550216675, 0.8443920612335205, 0.8082361294795147, 1707435825567295518, 
-0.15855854749679565, 0.7635737657546997, 0.6109948758896395, 1707435825577339872, 
0.41408562660217285, -0.21004217863082886, 0.6069975942704383, 1707435825587380703, 
0.051727354526519775, -0.19570523500442505, 0.6112767775204844, 1707435825597315310, 
-0.4092504382133484, 0.3569456934928894, 0.6045220449706914, 1707435825607378388, 
-0.46517258882522583, 1.2268706560134888, 0.6088250449556583, 1707435825617444019, 
-0.30569738149642944, -0.04580610990524292, 0.6265452191907417, 1707435825627339039, 
0.49636930227279663, -1.018572211265564, 0.5577741701618779, 1707435825638980313, 
0.3634812831878662, 0.5762511491775513, 0.8070918719652772, 1707435825647270825, 
-0.03361707925796509, 0.6427371501922607, 0.6587051279938362, 1707435825657384112, 
-0.1178591251373291, 0.06783294677734375, 0.6676555533717888, 1707435825667337704, 
-0.00013452768325805664, 0.2240096926689148, 0.6586100825637825, 1707435825677306311, 
-0.3167381286621094, 0.13262993097305298, 0.6327452199359492, 1707435825687665955, 
-0.042185842990875244, 0.9583398103713989, 0.6722064788514219, 1707435825697283046, 
0.007633984088897705, 0.2075362205505371, 0.6290721069884252, 1707435825707291254, 
0.400331974029541, -0.30805903673171997, 0.539791444353441, 1707435825718974855, 
0.29682058095932007, 0.8724815845489502, 0.7391140013061954, 1707435825727319041, 
-0.13688939809799194, 0.315926194190979, 0.6053249298061181, 1707435825737318838, 
0.11662733554840088, -0.14476490020751953, 0.6068483794210665, 1707435825747369631, 
-0.19463986158370972, -0.03093421459197998, 0.6097854100702026, 1707435825757354704, 
-0.42217350006103516, -0.11086976528167725, 0.6185907667902334, 1707435825767353667, 
-0.36894577741622925, 0.5440729856491089, 0.6209464205284737, 1707435825777352393, 
-0.09857410192489624, -0.0008344650268554688, 0.6120890746567527, 1707435825787313456, 
0.49459725618362427, -0.2190271019935608, 0.5125060264774679, 1707435825799217960, 
0.5868671536445618, 1.0643082857131958, 0.739230434244499, 1707435825807324519, 
-0.06582260131835938, 0.3571995496749878, 0.568438970279679, 1707435825817731930, 
-0.3153764009475708, -0.10345149040222168, 0.6214164139713987, 1707435825827381651, 
-0.35982364416122437, -0.0837666392326355, 0.5993856621493177, 1707435825837326182, 
-0.572225034236908, 0.26526421308517456, 0.5902917823829147, 1707435825847354240, 
0.3250306248664856, 1.1583678722381592, 0.5814006153362432, 1707435825857336601, 
0.43267154693603516, -0.10944050550460815, 0.5729787862445148, 1707435825867272544, 
0.30006492137908936, -0.6081604957580566, 0.48462837107082657, 1707435825879348406, 
-0.33710700273513794, 0.9601988196372986, 0.7457053793156879, 1707435825887288219, 
-0.48499351739883423, 0.6189409494400024, 0.5952209158013295, 1707435825897319241, 
0.09240812063217163, 0.00019687414169311523, 0.6163755901207273, 1707435825907296266, 
-0.30094802379608154, -0.06925320625305176, 0.6274379213502324, 1707435825917449344, 
0.1622104048728943, 0.1686997413635254, 0.6739354607325689, 1707435825927316553, 
0.3496589660644531, 0.9615151882171631, 0.666655478431919, 1707435825937319974, 
0.07290762662887573, -0.052066266536712646, 0.6548864644325367, 1707435825947314888, 
0.10717260837554932, -0.2525845766067505, 0.5629502118149625, 1707435825958972454, 
-0.4251793622970581, 0.6987828612327576, 0.7754888049188295, 1707435825967306427, 
-0.2669048309326172, 0.45501720905303955, 0.6290250224769929, 1707435825977344006, 
0.2469996213912964, 0.34564465284347534, 0.6146410478711408, 1707435825987383727, 
0.22293001413345337, 0.19377851486206055, 0.6159124000232853, 1707435825997341847, 
0.1774117350578308, -0.013069331645965576, 0.608715522344551, 1707435826007680465, 
-0.16528809070587158, 0.5720626711845398, 0.6460022619296343, 1707435826017436716, 
0.08968448638916016, -0.3751404881477356, 0.6301149720682018, 1707435826027362311, 
-0.4653393626213074, -0.13766932487487793, 0.5389094488695096, 1707435826038979202, 
-0.6638450622558594, 1.0018061399459839, 0.7410125244001564, 1707435826047307255, 
-0.19745075702667236, 0.01134270429611206, 0.610831562009444, 1707435826057333831, 
0.3630993366241455, 0.1386115550994873, 0.6128946481996492, 1707435826067388558, 
0.587794303894043, 0.14280027151107788, 0.628955457160186, 1707435826077348285, 
-0.057327091693878174, 0.4275052547454834, 0.6310863049371547, 1707435826087376431, 
-0.287061870098114, 0.7573700547218323, 0.6185132080126668, 1707435826097400614, 
-0.4017561078071594, -0.505815327167511, 0.6163840040503031, 1707435826107356512, 
-0.16109293699264526, -0.07116782665252686, 0.5158531843775199, 1707435826119192629, 
0.08031952381134033, 0.9778417944908142, 0.7242911749983847, 1707435826127394789, 
-0.03710055351257324, 0.018093645572662354, 0.5920322554438957, 1707435826137372437, 
-0.183907151222229, 0.2517337203025818, 0.46815989742358705, 1707435826150113494, 
-0.25918954610824585, 0.5865994691848755, 0.8257170012935027, 1707435826157495851, 
-0.023786962032318115, 0.5809527635574341, 0.6322295312325645, 1707435826167407387, 
-0.18326371908187866, -0.972017228603363, 0.6297474247039135, 1707435826177395028, 
0.7861436605453491, 0.07156872749328613, 0.6385340506694328, 1707435826187423483, 
0.13509434461593628, 1.1423194408416748, 0.5269203312053159, 1707435826199404916, 
-0.18782997131347656, -0.011573433876037598, 0.7679907498908312, 1707435826207305195, 
-0.11836051940917969, -0.0995110273361206, 0.5826123696155252, 1707435826217599085, 
-0.498513400554657, 0.18920451402664185, 0.6053466208320765, 1707435826227409865, 
-0.039720892906188965, 1.0617024898529053, 0.5942071507846559, 1707435826237486404, 
0.35229426622390747, 1.0095789432525635, 0.6139275196846165, 1707435826247388781, 
0.289581835269928, -0.8178113102912903, 0.6195325963259275, 1707435826257356175, 
-0.13500314950942993, 0.09648829698562622, 0.654128381640079, 1707435826267310925, 
-0.5189973711967468, 0.8875601887702942, 0.5499330831887703, 1707435826279405295, 
-0.48821234703063965, -0.24308502674102783, 0.829494669225916, 1707435826287318398, 
0.5214762687683105, -0.21308135986328125, 0.6478073257375433, 1707435826297338568, 
0.3009548783302307, -0.04954618215560913, 0.6255926752613451, 1707435826307324393, 
0.23124843835830688, 0.627271294593811, 0.6095145511413513, 1707435826317284492, 
0.11914956569671631, 0.8126562833786011, 0.5863554412638554, 1707435826327419933, 
-0.14407896995544434, -0.5025643706321716, 0.5861949719654703, 1707435826337304894, 
-0.2958051562309265, 0.11786788702011108, 0.5942923052998196, 1707435826347287394, 
-0.5843981504440308, 0.4997215270996094, 0.5065641330940247, 1707435826359271213, 
0.009065449237823486, 0.01672595739364624, 0.7600564461115877, 1707435826367287590, 
0.06270486116409302, 0.7348514795303345, 0.6086666527047252, 1707435826377350091, 
0.2654711604118347, 0.424455463886261, 0.6037436478015971, 1707435826387373262, 
-0.10360836982727051, 0.45669054985046387, 0.6121708046363776, 1707435826397360072, 
-0.22383910417556763, 0.23369497060775757, 0.6242793819174696, 1707435826407384836, 
0.5435259342193604, -0.6871951818466187, 0.6295114060675014, 1707435826417358404, 
-0.01161891222000122, 0.3107614517211914, 0.619609862433547, 1707435826427576913, 
-0.2773005962371826, 0.807456374168396, 0.5390889693836226, 1707435826439036341, 
0.007439553737640381, -0.18281054496765137, 0.727339630458504, 1707435826447306693, 
0.4578619599342346, 0.010669052600860596, 0.5858519815017204, 1707435826457629293, 
0.2556748390197754, 0.24753600358963013, 0.6141305627327115, 1707435826467422994, 
-0.30039072036743164, 0.7828401923179626, 0.6055715060695387, 1707435826477344363, 
-0.48495715856552124, 0.33847951889038086, 0.5902850966271892, 1707435826487386829, 
-0.3210545778274536, -0.31602662801742554, 0.5859876273205535, 1707435826497341022, 
0.2613597512245178, 0.9215074777603149, 0.5930354736994584, 1707435826507314419, 
0.5174434781074524, 0.8684362173080444, 0.49199530178340545, 1707435826519445071, 
0.24306952953338623, -0.4182993173599243, 0.7687263498491411, 1707435826527305722, 
-0.08761817216873169, -0.11152523756027222, 0.6033989867878777, 1707435826537485740, 
-0.4205473065376282, 0.18718481063842773, 0.6246137587727563, 1707435826547362006, 
-0.7115889191627502, 0.2647321820259094, 0.6238716533526357, 1707435826557312053, 
-0.14313441514968872, 0.21877944469451904, 0.6112827749913283, 1707435826567347837, 
0.3349456787109375, -0.5675621032714844, 0.6109316709596324, 1707435826577328855, 
0.674595832824707, 0.8500648736953735, 0.602455825487852, 1707435826587553221, 
-0.17844372987747192, 0.6533512473106384, 0.5363343724724772, 1707435826598930127, 
-0.368831992149353, -0.3111361265182495, 0.7281719741471322, 1707435826607307774, 
-0.051904499530792236, 0.23582172393798828, 0.6015623772805881, 1707435826617462727, 
-0.42836833000183105, 0.4423479437828064, 0.6112699276302574, 1707435826627409762, 
0.4711841344833374, 0.5575560331344604, 0.6092197315812301, 1707435826637363834, 
0.12462306022644043, -0.03217858076095581, 0.5920682176080384, 1707435826647469003, 
0.027203142642974854, -0.5265034437179565, 0.6043289479506194, 1707435826657379206, 
-0.03009164333343506, 1.0767260789871216, 0.6023992435685793, 1707435826667332812, 
-0.43679916858673096, 0.7846769690513611, 0.5067475606906532, 1707435826678908293, 
0.018214166164398193, -0.5027801990509033, 0.7038136750993521, 1707435826687335575, 
0.5107222199440002, -0.06752735376358032, 0.610651911790917, 1707435826697337515, 
0.006376028060913086, 0.12200385332107544, 0.6245235950675048, 1707435826707362864, 
-0.3843485713005066, 0.7431043386459351, 0.6380465972604078, 1707435826717360178, 
-0.26327401399612427, 0.32423853874206543, 0.6260869393489225, 1707435826727378907, 
-0.3384174704551697, -0.7748101949691772, 0.6277021854815236, 1707435826737330037, 
0.3418006896972656, 0.6917646527290344, 0.629594462740462, 1707435826747293152, 
0.14834177494049072, 0.830769419670105, 0.5277623866050479, 1707435826758975817, 
0.3359682559967041, 0.2052505612373352, 0.7420203049814115, 1707435826767290305, 
-0.08827495574951172, 0.41851258277893066, 0.6100177623912819, 1707435826777335341, 
-0.31735748052597046, -0.1855444312095642, 0.6149530558401203, 1707435826787334947, 
0.07633364200592041, 0.4213467836380005, 0.6326233901491376, 1707435826797292716, 
-0.07736092805862427, 0.2599436640739441, 0.6187009267463724, 1707435826807345863, 
0.2969319224357605, -0.5473814606666565, 0.6134100525698537, 1707435826817474514, 
-0.171514093875885, 0.5216877460479736, 0.6357043778350934, 1707435826827353222, 
-0.206234872341156, 0.31482118368148804, 0.5182817889920046, 1707435826839413814, 
0.20100849866867065, 0.01186901330947876, 0.80374386689001, 1707435826847339345, 
0.42447519302368164, 0.6376402974128723, 0.6234265099266062, 1707435826857488291, 
0.183316171169281, 0.12343662977218628, 0.6303450425807672, 1707435826867397469, 
-0.20493870973587036, 0.3255375623703003, 0.6331945710145844, 1707435826877372904, 
-0.16442763805389404, 0.02037835121154785, 0.6218332883352184, 1707435826887403317, 
-0.34629911184310913, 0.08213859796524048, 0.6203250363072736, 1707435826897374920, 
0.010136604309082031, 1.3578397035598755, 0.6132161049460232, 1707435826907342233, 
0.21811950206756592, 0.06945663690567017, 0.49575728646951567, 1707435826919293572, 
0.011021673679351807, -0.5929938554763794, 0.7365777594082179, 1707435826927350468, 
-0.4273667335510254, 0.4588086009025574, 0.6002372062552768, 1707435826937361427, 
-0.329473078250885, 0.4995996356010437, 0.6052728078355742, 1707435826947414895, 
-0.3487454056739807, 0.29549598693847656, 0.620684921166712, 1707435826957375902, 
0.2169758677482605, -0.5407664179801941, 0.6197029066989236, 1707435826967483318, 
0.6716244220733643, -0.27620476484298706, 0.6478165104063245, 1707435826977356404, 
-0.026334047317504883, 1.310167670249939, 0.636031949642339, 1707435826987326740, 
-0.22956424951553345, 0.4197021722793579, 0.5310544800791225, 1707435826998959002, 
-0.17103201150894165, -0.450764000415802, 0.7379426818079924, 1707435827007310853, 
0.07813197374343872, 0.2536540627479553, 0.590547100200707, 1707435827017767229, 
0.1997290849685669, 0.8814288377761841, 0.6495243233857461, 1707435827027365346, 
0.3709191679954529, 0.9977579712867737, 0.6292592265954111, 1707435827037354322, 
0.07619911432266235, -0.29569143056869507, 0.6248664751278192, 1707435827047382909, 
-0.31396961212158203, -0.43226462602615356, 0.6377075914407319, 1707435827057360070, 
-0.31799089908599854, 1.0031630992889404, 0.6426107259087238, 1707435827067329669, 
-0.5100255608558655, -0.07697147130966187, 0.5470178921286882, 1707435827078955798, 
0.3450533151626587, -0.7334258556365967, 0.7573910441475836, 1707435827087344425, 
0.2833716869354248, 0.37690645456314087, 0.6234556743817096, 1707435827097380066, 
0.05722242593765259, 0.6897295713424683, 0.6170312831045615, 1707435827107405492, 
0.17794126272201538, 1.0552490949630737, 0.6120671975662083, 1707435827117450695, 
0.06733518838882446, -0.3329194188117981, 0.6226377372314338, 1707435827127385657, 
-0.21906238794326782, 0.06006592512130737, 0.6320607430815094, 1707435827137418449, 
0.04816514253616333, 1.0763821601867676, 0.6373175728712194, 1707435827147318607, 
0.0991288423538208, -0.2144010066986084, 0.5043250484149284, 1707435827159691828, 
0.4772025942802429, -0.47999751567840576, 0.8129692490160031, 1707435827167332755, 
-0.20034587383270264, 0.37207329273223877, 0.6092906378632028, 1707435827177369440, 
-0.6637746691703796, 0.7513241767883301, 0.6099948008382481, 1707435827187351487, 
-0.08855527639389038, 0.6969419717788696, 0.5982139554297669, 1707435827197346109, 
-0.42108309268951416, -0.9315358400344849, 0.5979814457382471, 1707435827207417437, 
0.30410122871398926, -0.3024776577949524, 0.6204471769835858, 1707435827217502456, 
0.08805191516876221, 1.2093337774276733, 0.638322036131328, 1707435827227353299, 
0.0687798261642456, -0.0035210847854614258, 0.5365127611358277, 1707435827238994451, 
0.21275782585144043, -0.015012741088867188, 0.7451561621103389, 1707435827247312542, 
-0.5603733658790588, 0.3448927402496338, 0.5931182460020948, 1707435827257663282, 
-0.18490421772003174, 0.6356618404388428, 0.6275100678755153, 1707435827267383926, 
-0.41615092754364014, 0.8713720440864563, 0.5937334210543347, 1707435827277384540, 
-0.0903087854385376, -0.5470491647720337, 0.5910131766029303, 1707435827287466488, 
0.6716944575309753, 0.35445868968963623, 0.6186883957525213, 1707435827297390580, 
0.4935782551765442, 1.0001788139343262, 0.6207234901169711, 1707435827307374245, 
0.24543005228042603, -0.20222127437591553, 0.5337191473486848, 1707435827319121259, 
-0.0708460807800293, -0.08387231826782227, 0.7675048685268622, 1707435827327379850, 
-0.7169865369796753, -0.07174539566040039, 0.6250229814273854, 1707435827337581876, 
-0.4742411971092224, 0.2182929515838623, 0.6546415392970085, 1707435827347417574, 
-0.13292771577835083, 0.47541332244873047, 0.6346088698741843, 1707435827357388874, 
-0.1178123950958252, -0.20476317405700684, 0.6253831602752122, 1707435827367413725, 
0.7272529602050781, 0.4612491726875305, 0.6306738003027113, 1707435827377387741, 
-0.0034601688385009766, 0.8199392557144165, 0.6251398519100286, 1707435827387402676, 
0.09049016237258911, -0.17809998989105225, 0.5508133485618983, 1707435827398978801, 
-0.06739532947540283, 0.0459747314453125, 0.7658252962253269, 1707435827407375206, 
-0.5639098286628723, 0.21787506341934204, 0.6210545082608144, 1707435827417686892, 
-0.06172490119934082, 0.7144086956977844, 0.6482236054115387, 1707435827427470718, 
-0.1540902853012085, 0.6293074488639832, 0.6145014380295205, 1707435827437653707, 
0.5471406579017639, -0.5747050046920776, 0.6484077626569461, 1707435827447434946, 
0.38652610778808594, 0.23197662830352783, 0.6378599311019034, 1707435827457442935, 
-0.4047115445137024, 0.861356794834137, 0.6377391565951444, 1707435827467368008, 
0.27583348751068115, -0.09534049034118652, 0.5120794941529249, 1707435827479740992, 
-0.39485228061676025, 0.07699686288833618, 0.8057986368952952, 1707435827487604144, 
-0.30302679538726807, 0.5526934266090393, 0.6314410573731709, 1707435827497710095, 
0.1758599877357483, 0.5448898077011108, 0.6518951027892684, 1707435827507469441, 
0.683942437171936, -0.3525179624557495, 0.6126738926697122, 1707435827517776730, 
0.23188209533691406, 0.29200202226638794, 0.6547309740287167, 1707435827527463784, 
-0.20021426677703857, 0.6515944004058838, 0.6312479434863456, 1707435827537428864, 
-0.22628700733184814, 0.1603500247001648, 0.6206839429282229, 1707435827547366501, 
-0.06401777267456055, 0.40970444679260254, 0.5247468765854869, 1707435827558940494, 
-0.2994723320007324, -0.048329830169677734, 0.708487303983427, 1707435827567362802, 
0.17320430278778076, 0.010373115539550781, 0.5958793192350097, 1707435827577423716, 
0.5115693211555481, 0.20647644996643066, 0.6077900232881819, 1707435827587390863, 
-0.35155820846557617, -0.379788339138031, 0.6123311923488101, 1707435827597387989, 
-0.3506428003311157, 0.6296272873878479, 0.6235807973907845, 1707435827607452458, 
-0.41962534189224243, 0.39523500204086304, 0.6317129100315408, 1707435827617407010, 
0.10112816095352173, 0.03285229206085205, 0.6401495814677935, 1707435827627341614, 
0.5596044659614563, 0.6592950224876404, 0.5634099544850426, 1707435827638980842, 
0.056629180908203125, 0.24502432346343994, 0.7900151933148062, 1707435827647333598, 
0.08298128843307495, 0.531376302242279, 0.6569848175593218, 1707435827657400025, 
-0.25703465938568115, 0.13456124067306519, 0.6555065027221924, 1707435827667382188, 
-0.1398429274559021, -0.12299847602844238, 0.645714429418005, 1707435827677374510, 
-0.1260528564453125, 0.7529245615005493, 0.643235952921687, 1707435827687381407, 
-0.1781226396560669, 0.022254347801208496, 0.626682538700699, 1707435827697363743, 
0.21004343032836914, -0.14905351400375366, 0.6145968849393304, 1707435827707377742, 
0.18391144275665283, 0.7096704840660095, 0.5293447421998115, 1707435827719087691, 
0.05285060405731201, 0.151506245136261, 0.7452806125700913, 1707435827727386419, 
-0.19839543104171753, 0.34444403648376465, 0.6295832824681552, 1707435827737413406, 
0.18890154361724854, -0.35534512996673584, 0.6288512306537677, 1707435827747454170, 
0.17506593465805054, -0.4450949430465698, 0.641870861906914, 1707435827757358805, 
-0.10296756029129028, 1.1958361864089966, 0.6403526998850352, 1707435827767409709, 
-0.49859029054641724, 0.28516972064971924, 0.6311272572330433, 1707435827777413861, 
-0.049184322357177734, -0.3848326802253723, 0.616743015622191, 1707435827787574352, 
-0.23014259338378906, 0.48077428340911865, 0.5291056672769267, 1707435827799378792, 
0.35024625062942505, 0.5784988403320312, 0.7730209288217634, 1707435827807368077, 
0.3120461702346802, 1.0911093950271606, 0.6173641756224092, 1707435827817379822, 
-0.14438343048095703, -0.2828608751296997, 0.6069033529474325, 1707435827827449033, 
0.1825035810470581, -0.506563663482666, 0.6084459388662844, 1707435827837569596, 
-0.48557156324386597, 0.9283450841903687, 0.6326063876726107, 1707435827847416606, 
-0.2033982276916504, -0.0072190165519714355, 0.6156614329042998, 1707435827857362246, 
0.16202819347381592, -0.44806647300720215, 0.6179800340521885, 1707435827867340503, 
0.2660524249076843, 0.24997013807296753, 0.531860797991977, 1707435827878973849, 
-0.18745368719100952, 0.4805694818496704, 0.7370790619099403, 1707435827887353280, 
0.13622528314590454, 1.091941475868225, 0.6230964923487738, 1707435827897367237, 
0.48539453744888306, -0.16293823719024658, 0.6220968604204258, 1707435827907389073, 
-0.1247870922088623, -0.14900678396224976, 0.6352753792184379, 1707435827917520576, 
-0.07036471366882324, 0.8773764967918396, 0.631737316464465, 1707435827927951470, 
-0.7689997553825378, -0.07647961378097534, 0.6843924845921013, 1707435827937409290, 
0.18200278282165527, 0.3146021366119385, 0.6377233177099245, 1707435827947373236, 
0.17551451921463013, 0.4139414429664612, 0.5285207274700415, 1707435827959033014, 
0.15528112649917603, 0.22326534986495972, 0.7209955115885196, 1707435827967375395, 
0.08814841508865356, 0.47937852144241333, 0.6003659311260214, 1707435827977450824, 
-0.1789568066596985, -0.48891681432724, 0.6086807201019392, 1707435827987429703, 
0.036680400371551514, -0.16068977117538452, 0.6136477730334771, 1707435827997589790, 
-0.262382447719574, 0.8404793739318848, 0.6402487351970669, 1707435828007421332, 
0.09052973985671997, -0.022653162479400635, 0.6185432614666477, 1707435828017536310, 
0.33388179540634155, 0.15150445699691772, 0.637931874202144, 1707435828027359897, 
0.18105798959732056, 0.41520315408706665, 0.5091426877398847, 1707435828039528751, 
-0.4081609845161438, 0.6566141843795776, 0.784079952425915, 1707435828047376250, 
-0.3170863389968872, 0.5961938500404358, 0.604295243541466, 1707435828057416253, 
-0.21028822660446167, -0.4765206575393677, 0.6000168520732695, 1707435828067407135, 
0.10287439823150635, 0.5111390948295593, 0.613337260065238, 1707435828077417527, 
0.6469045281410217, 1.0364325046539307, 0.6206621404701476, 1707435828087464132, 
-0.028066039085388184, -0.3099071979522705, 0.6330736312906181, 1707435828097389104, 
-0.0793028473854065, -0.35119879245758057, 0.6423806366398116, 1707435828107342706, 
-0.47205156087875366, 0.18245303630828857, 0.51557238586681, 1707435828119786318, 
-0.400918185710907, 0.37066054344177246, 0.8472683735160679, 1707435828127378694, 
-0.07058638334274292, 0.45694196224212646, 0.6304128767249155, 1707435828137372777, 
0.4077973961830139, -0.5843304395675659, 0.6088644766668562, 1707435828147417768, 
0.47247785329818726, 0.5540744066238403, 0.6086881564095785, 1707435828157401116, 
-0.3012375831604004, 1.0511358976364136, 0.598765142685278, 1707435828167418729, 
-0.10690593719482422, -0.22911560535430908, 0.6051448176217393, 1707435828177411588, 
-0.022610068321228027, -0.025952816009521484, 0.6083024533416698, 1707435828187547101, 
0.09838616847991943, 0.1963282823562622, 0.5273863185851145, 1707435828199359298, 
0.2513207197189331, 0.48233354091644287, 0.7822402756685404, 1707435828207384110, 
-0.20305496454238892, 0.3228544592857361, 0.6085000945939703, 1707435828217566653, 
-0.18283683061599731, -0.6346626877784729, 0.6160003149435095, 1707435828227512154, 
-0.09664100408554077, 0.577412486076355, 0.617147951073876, 1707435828237413836, 
-0.2849659323692322, 1.1731846332550049, 0.5919845826099801, 1707435828247494034, 
0.3095804452896118, -0.09289109706878662, 0.6127010194037045, 1707435828257401813, 
0.2640751600265503, 0.09729200601577759, 0.6344863479551699, 1707435828267376921, 
-0.080020010471344, -0.09441131353378296, 0.550731240448154, 1707435828279104870, 
-0.3541260361671448, 0.5873044729232788, 0.7865132608809684, 1707435828287384374, 
-0.24400019645690918, 0.5978780388832092, 0.6374421712178233, 1707435828297384213, 
0.2986772060394287, -0.8407451510429382, 0.6300562249623782, 1707435828307416118, 
0.07528960704803467, 0.45403802394866943, 0.621779746829428, 1707435828317589107, 
-0.07607537508010864, 0.9725215435028076, 0.6321551636466621, 1707435828327407907, 
0.03845548629760742, 0.12400341033935547, 0.6212319939970851, 1707435828337406373, 
0.06242591142654419, 0.3311529755592346, 0.6208208097346277, 1707435828347360799, 
-0.22324204444885254, -0.20841974020004272, 0.5063684532472815, 1707435828359586683, 
-0.14267122745513916, 0.3066202998161316, 0.8127333987090513, 1707435828367363952, 
-0.05149483680725098, 0.4410465955734253, 0.6209044199056694, 1707435828377455145, 
-0.11081254482269287, -0.6824788451194763, 0.6326435940414338, 1707435828387418455, 
0.2751135230064392, 0.4988054037094116, 0.6332834277580698, 1707435828397464562, 
-0.1690809726715088, 0.4427223205566406, 0.6284412709716819, 1707435828407455967, 
0.22679662704467773, -0.08126407861709595, 0.6197355631609004, 1707435828417621004, 
0.4497068524360657, 0.5475984215736389, 0.6385277382945674, 1707435828427392921, 
-0.15478360652923584, 0.2490231990814209, 0.5127619419287436, 1707435828439455447, 
-0.2510085701942444, 0.5099761486053467, 0.7830877812364667, 1707435828447414564, 
-0.2733374238014221, -0.022208333015441895, 0.595079160707634, 1707435828457718020, 
-0.3859591484069824, -0.13799142837524414, 0.6284350661167877, 1707435828467443189, 
0.29825782775878906, 1.3520629405975342, 0.6108291569551035, 1707435828477441549, 
0.5367820262908936, 0.5421044826507568, 0.6032174175588093, 1707435828487457570, 
-0.04801225662231445, -0.5551140904426575, 0.6179326349271687, 1707435828497432615, 
-0.06553947925567627, 0.14382320642471313, 0.6324887989477641, 1707435828507389466, 
-0.43738651275634766, 0.36686521768569946, 0.5451497134703635, 1707435828519110883, 
-0.10563850402832031, 0.4710390567779541, 0.7750892060824845, 1707435828527383416, 
0.12474411725997925, -0.27449512481689453, 0.6318990291104098, 1707435828537439363, 
0.283380925655365, -0.639625608921051, 0.6424559602772725, 1707435828547410857, 
0.2899487614631653, 0.9637108445167542, 0.6320598219234411, 1707435828557404456, 
-0.3386841416358948, 0.7772909998893738, 0.6071856349427169, 1707435828567483354, 
0.21068382263183594, -0.2112787365913391, 0.615122600168077, 1707435828577417234, 
-0.3131082057952881, 0.05603688955307007, 0.6165801473998862, 1707435828587405309, 
-0.02968776226043701, 0.5695497393608093, 0.5194234763805967, 1707435828599367501, 
-0.041747093200683594, 1.1905558109283447, 0.7744240569788085, 1707435828607380726, 
0.20333397388458252, -0.07164233922958374, 0.604608359503429, 1707435828617626509, 
0.3786555528640747, -0.7353870272636414, 0.6398248230302672, 1707435828627522319, 
-0.14046406745910645, 0.5807268619537354, 0.6249952781585653, 1707435828637669398, 
-0.1040378212928772, 0.40770798921585083, 0.6427898798582078, 1707435828647468532, 
-0.33064013719558716, -0.4907953143119812, 0.6275407423204463, 1707435828657445957, 
-0.10453277826309204, 0.06957727670669556, 0.6222031562559182, 1707435828667398606, 
0.011814713478088379, 0.45140349864959717, 0.5272054563704643, 1707435828679002933, 
0.18433427810668945, 0.9654689431190491, 0.7120822442612486, 1707435828687420963, 
0.19741666316986084, -0.1272052526473999, 0.5942718844215076, 1707435828697442392, 
0.09193891286849976, -0.1393168568611145, 0.6006269139529661, 1707435828707463139, 
-0.38506561517715454, 0.887365460395813, 0.5884205911896753, 1707435828717582419, 
-0.30127477645874023, 0.2436090111732483, 0.5948645559482761, 1707435828727460921, 
0.2592466473579407, -0.2453656792640686, 0.5855676828485756, 1707435828737459122, 
0.05415070056915283, 0.2368064522743225, 0.5960620692978731, 1707435828747389068, 
0.22546392679214478, 0.8507567644119263, 0.5055761627380574, 1707435828759518652, 
-0.139739990234375, 0.884589433670044, 0.7851932671255265, 1707435828767459067, 
-0.2764672636985779, -0.5849857330322266, 0.6338445050883394, 1707435828777496531, 
-0.03811764717102051, -0.8547449707984924, 0.6532261606031098, 1707435828787499545, 
-0.0008075833320617676, 0.8214789628982544, 0.6516478580913901, 1707435828797469715, 
-0.16588068008422852, 0.28506147861480713, 0.6374562387605537, 1707435828807536174, 
0.0009338259696960449, 0.2099674940109253, 0.6742297070169692, 1707435828816884715, 
-0.30329424142837524, 0.3696848750114441, 0.5809625299225079, 1707435828827615689, 
-0.09456712007522583, 1.0853711366653442, 0.5433400979880266, 1707435828839154920, 
0.045450806617736816, -0.14560610055923462, 0.7496155341935506, 1707435828847444851, 
0.5566062927246094, 0.128135085105896, 0.6193478539404795, 1707435828857562204, 
0.2953444719314575, 0.8306419849395752, 0.6356391874993205, 1707435828867471666, 
-0.09576302766799927, -0.12211072444915771, 0.6134210801286429, 1707435828877470546, 
-0.038114309310913086, -0.11783772706985474, 0.6091585393824297, 1707435828887497915, 
-0.3436667323112488, 0.08110243082046509, 0.6107936739873658, 1707435828897457984, 
-0.506834089756012, 0.0584830641746521, 0.611201090173954, 1707435828907400925, 
-0.1703898310661316, 0.42291492223739624, 0.5097056404893782, 1707435828919380897, 
0.047499895095825195, -0.31787270307540894, 0.7474340120937686, 1707435828927416067, 
0.22270560264587402, 0.44459331035614014, 0.6041651139541642, 1707435828937461882, 
0.1360536813735962, 1.1539133787155151, 0.6147362633061724, 1707435828947438271, 
-0.2433280348777771, -0.16519975662231445, 0.6058471552875113, 1707435828957428440, 
0.05224353075027466, -0.1276719570159912, 0.6096839550236535, 1707435828967467041, 
-0.3184979557991028, 0.1939658522605896, 0.6126898710309995, 1707435828977466025, 
-0.20063161849975586, 0.8351906538009644, 0.6105846418905899, 1707435828987369279, 
0.2616656422615051, 0.6954073309898376, 0.5053222357038861, 1707435828999083433, 
0.5877318382263184, -0.7846212387084961, 0.6910844871923101, 1707435829007377736, 
0.2720092535018921, -0.0542258620262146, 0.5814122099522222, 1707435829017443889, 
-0.5051357746124268, 1.3519301414489746, 0.6014472095521212, 1707435829027495767, 
-0.09785217046737671, 0.12412858009338379, 0.6038101188669163, 1707435829037603972, 
-0.26728618144989014, -0.41522133350372314, 0.6346186898141558, 1707435829047441138, 
-0.062014222145080566, -0.16900873184204102, 0.6422602276273607, 1707435829057468212, 
0.43339115381240845, 0.5560486316680908, 0.6742914366242915, 1707435829067408771, 
0.37981826066970825, 0.7644479274749756, 0.5364537573350687, 1707435829079937701, 
0.1975286602973938, -0.3994169235229492, 0.8588368650601041, 1707435829087441433, 
-0.31656867265701294, 0.10530883073806763, 0.6067146908316685, 1707435829097987375, 
-0.598074197769165, 0.8700120449066162, 0.6716863666499369, 1707435829107479317, 
-0.2818649411201477, 0.4499403238296509, 0.6264609238299316, 1707435829117412610, 
-0.06318771839141846, 0.29205483198165894, 0.6026262046226111, 1707435829127467976, 
0.5090557336807251, -0.15900194644927979, 0.5937561175076033, 1707435829137440295, 
0.458568811416626, -0.007408261299133301, 0.6012879798519597, 1707435829147401027, 
-0.25370562076568604, 0.5260886549949646, 0.4999759656911034, 1707435829159642748, 
-0.2712724804878235, -0.35145074129104614, 0.7896012809831344, 1707435829167400288, 
-0.7703865766525269, 0.17952007055282593, 0.6108353423861035, 1707435829177457088, 
-0.14486348628997803, 0.5761861205101013, 0.6109713507073913, 1707435829187453275, 
0.5765458941459656, 0.04962366819381714, 0.610951934200434, 1707435829197425273, 
0.6665006875991821, 0.6494447588920593, 0.6129452189008531, 1707435829207537340, 
0.16140758991241455, 0.24077433347702026, 0.6385661477930084, 1707435829217432006, 
-0.6302561163902283, 0.39851951599121094, 0.6421155583512403, 1707435829227413827, 
0.07978153228759766, 0.3667638301849365, 0.5470670046420305, 1707435829239090562, 
-0.4140917658805847, -0.2970554232597351, 0.760805200135171, 1707435829247403738, 
0.21747452020645142, 0.32192331552505493, 0.6289557388348174, 1707435829257472256, 
-0.33454424142837524, 0.4528602957725525, 0.6275462440768972, 1707435829267452158, 
-0.43374377489089966, -0.4018377661705017, 0.6171138532733622, 1707435829277453652, 
0.40671712160110474, 0.5198018550872803, 0.6094408760677684, 1707435829287473453, 
-0.14964330196380615, 0.24151760339736938, 0.5992186381582979, 1707435829297461887, 
0.5608924031257629, 0.29941362142562866, 0.6093531929000167, 1707435829307458380, 
0.1376255750656128, 0.1313713788986206, 0.535697746565201, 1707435829319131358, 
-0.03659713268280029, -0.4419174790382385, 0.76784816659568, 1707435829327455512, 
-0.20748478174209595, 0.9557641744613647, 0.6484717963914317, 1707435829337463330, 
-0.4890727400779724, 0.6922714114189148, 0.6340454972519183, 1707435829347471559, 
-0.011213481426239014, -0.3589380979537964, 0.6268013622317614, 1707435829357469690, 
0.22054994106292725, 0.5214052200317383, 0.6185905164535942, 1707435829367514170, 
0.1265963315963745, 0.43849581480026245, 0.6143231049779209, 1707435829377496791, 
-0.03490549325942993, 0.784496009349823, 0.621904563126004, 1707435829387434967, 
0.16537338495254517, 0.14535951614379883, 0.5002523358165005, 1707435829399800612, 
0.1397501826286316, -0.8633439540863037, 0.8406293057425938, 1707435829407376359, 
0.3378859758377075, 0.592656135559082, 0.6355118332735451, 1707435829417667561, 
-0.4387053847312927, 0.34614086151123047, 0.6509917663656857, 1707435829427481270, 
-0.35825371742248535, -0.553230345249176, 0.6398904607475151, 1707435829437458667, 
0.14363950490951538, 0.12770092487335205, 0.6390048031466153, 1707435829447425059, 
-0.07253384590148926, 0.4519042372703552, 0.6191556055817794, 1707435829457443148, 
0.24047458171844482, 1.060119867324829, 0.6106880986650303, 1707435829467423401, 
0.07428723573684692, 0.26466959714889526, 0.5078146779675076, 1707435829479090233, 
0.07150018215179443, -0.561076283454895, 0.7173233400570829, 1707435829487408255, 
-0.5419063568115234, 0.7103781700134277, 0.605440313162034, 1707435829497464710, 
-0.3503556251525879, 0.34811800718307495, 0.5918678189394981, 1707435829507502442, 
0.03290605545043945, -0.102547287940979, 0.5863079488090164, 1707435829517463338, 
0.4439516067504883, 0.4035481810569763, 0.5672258051468219, 1707435829527559261, 
0.6212122440338135, 0.13900482654571533, 0.5759689317731372, 1707435829537472393, 
-0.6434450745582581, 0.5363892316818237, 0.586483463802126, 1707435829547439585, 
-0.5516733527183533, -0.26043349504470825, 0.5053950998732735, 1707435829559167920, 
0.03407233953475952, -0.7436055541038513, 0.7385812117776558, 1707435829567436884, 
-0.040289998054504395, 0.8227023482322693, 0.6170060594849028, 1707435829577483931, 
0.3141160011291504, 0.4735361337661743, 0.6160863911716329, 1707435829587527711, 
0.4534928798675537, 0.027865350246429443, 0.635185252519872, 1707435829597468196, 
-0.1680406928062439, 0.5625020861625671, 0.6347039509745162, 1707435829607499598, 
-0.46719038486480713, 0.5484092235565186, 0.6234844873065215, 1707435829617659887, 
-0.37116724252700806, 0.6916713714599609, 0.639319557877156, 1707435829627453759, 
-0.10468190908432007, -0.1539592146873474, 0.5078274018086738, 1707435829639627291, 
0.6542238593101501, -0.18768960237503052, 0.8062487611101162, 1707435829647413579, 
0.38866084814071655, 1.1229037046432495, 0.6226066991967497, 1707435829657434170, 
-0.16551828384399414, 0.2438097596168518, 0.6067309257991602, 1707435829667470941, 
-0.25127536058425903, -0.6166447997093201, 0.6149039051453544, 1707435829677443740, 
0.00034058094024658203, 0.16061943769454956, 0.6146839768081596, 1707435829687473635, 
-0.23054969310760498, 0.1699877381324768, 0.6224266038352185, 1707435829697468851, 
0.13209474086761475, 0.5245906114578247, 0.6228574740345281, 1707435829707419104, 
0.308377742767334, -0.16550302505493164, 0.536344887788761, 1707435829718902347, 
0.27942848205566406, 0.012801289558410645, 0.7321642363991834, 1707435829727448313, 
0.06437563896179199, 1.3351844549179077, 0.6201517264706892, 1707435829737468674, 
-0.236517071723938, -0.07978665828704834, 0.6109581124098888, 1707435829747499170, 
0.14080989360809326, -0.34393244981765747, 0.6213185195201166, 1707435829757438466, 
0.014364838600158691, 0.31966114044189453, 0.6074233851052807, 1707435829767498539, 
-0.21181625127792358, 0.2808675169944763, 0.6082559165362693, 1707435829777490573, 
-0.24070745706558228, 0.49545973539352417, 0.5919996403927301, 1707435829787623578, 
-0.4283496141433716, -0.40026789903640747, 0.5122113600282613, 1707435829799117191, 
-0.0834195613861084, -0.16326093673706055, 0.7172310662600838, 1707435829807437568, 
0.17067182064056396, 1.3900803327560425, 0.5818667203359729, 1707435829817713058, 
0.08202368021011353, -0.0345768928527832, 0.6251147798895281, 1707435829827490735, 
0.20577925443649292, -0.23173880577087402, 0.6367552743672062, 1707435829837507875, 
-0.3562242388725281, 0.28985756635665894, 0.6244258578222439, 1707435829847835359, 
-0.4079053997993469, 0.19843149185180664, 0.6744088562486628, 1707435829857445174, 
0.3421066999435425, 0.9034067392349243, 0.6364922869758632, 1707435829867418960, 
0.011472046375274658, -0.33714956045150757, 0.5294943784812853, 1707435829879133688, 
0.20905518531799316, -0.1874626874923706, 0.7513049062183453, 1707435829887409692, 
-0.3771803379058838, 1.2432085275650024, 0.6045797994380089, 1707435829897438133, 
-0.049268126487731934, 0.002913534641265869, 0.594008725556921, 1707435829907491618, 
0.3884252905845642, 0.17433738708496094, 0.5924729149070974, 1707435829917454163, 
-0.10693848133087158, 0.1517789363861084, 0.5804743426903034, 1707435829927465233, 
0.1407502293586731, -0.11964184045791626, 0.5927310691781102, 1707435829937483260, 
-0.40546905994415283, 0.49223774671554565, 0.6013982421186133, 1707435829947429506, 
0.054746389389038086, -0.35038840770721436, 0.5119854074143659, 1707435829959421781, 
0.02081984281539917, 0.09422600269317627, 0.8020086741282262, 1707435829967457327, 
0.050790607929229736, 0.9490360021591187, 0.6525438149577809, 1707435829977473058, 
0.13482153415679932, -0.26431846618652344, 0.6508798478951331, 1707435829987529733, 
0.15734946727752686, 0.41194337606430054, 0.6490721888993748, 1707435829997505471, 
0.055004239082336426, 0.6730098724365234, 0.6324591848615179, 1707435830007506078, 
-0.30437982082366943, 0.21703344583511353, 0.6322366033832936, 1707435830017501799, 
-0.0639612078666687, 0.24158620834350586, 0.6240964918308296, 1707435830027482518, 
-0.23412024974822998, -0.5341211557388306, 0.5079781977666594, 1707435830039554964, 
0.033904969692230225, 0.6710526943206787, 0.768708776617544, 1707435830047443476, 
0.10804450511932373, 1.196613073348999, 0.5828197158454452, 1707435830057502634, 
0.20621418952941895, -0.6625460386276245, 0.5838635567413405, 1707435830067527349, 
-0.09383547306060791, -0.13626062870025635, 0.6008024617260416, 1707435830077494030, 
-0.08382529020309448, 0.6193075776100159, 0.6076533163965947, 1707435830087524137, 
-0.09641784429550171, 0.27742278575897217, 0.6191842564871886, 1707435830097549556, 
-0.1697031855583191, 0.07011657953262329, 0.6231073071412937, 1707435830107539123, 
0.10441410541534424, -0.7710939049720764, 0.5250732108851145, 1707435830119616995, 
-0.0999864935874939, 0.5646288990974426, 0.8029373149924638, 1707435830127554548, 
-0.012629330158233643, 1.3752083778381348, 0.6191885116016198, 1707435830137510647, 
0.15459012985229492, -0.03504061698913574, 0.5946093463221682, 1707435830147782896, 
-0.4277295470237732, 0.44435447454452515, 0.6202862794937682, 1707435830157656274, 
-0.10994189977645874, 1.0448265075683594, 0.57182226560188, 1707435830168347949, 
0.4942227602005005, 0.6997843384742737, 0.6663693658209464, 1707435830177554129, 
0.4404842257499695, -0.853752613067627, 0.6064759171753245, 1707435830187632327, 
0.4649354815483093, 0.059736549854278564, 0.5487378489594255, 1707435830199209102, 
-0.3981509208679199, 0.834486186504364, 0.784296459636231, 1707435830207500442, 
-0.2991572618484497, -0.5762887597084045, 0.6250461255631785, 1707435830217718899, 
-0.25240594148635864, -0.3395397663116455, 0.6483700820406039, 1707435830227548347, 
-0.2935221195220947, 0.4499814510345459, 0.6340882998233419, 1707435830237499622, 
0.2465478777885437, 0.7151163220405579, 0.6199172707098174, 1707435830247531820, 
0.3659777045249939, 0.6105110049247742, 0.6099328063069166, 1707435830257490705, 
-0.12314766645431519, -0.6354299783706665, 0.5924219863377247, 1707435830267480047, 
-0.35215985774993896, 0.7101944088935852, 0.5958024646903364, 1707435830287566863, 
0.1580979824066162, -0.4328620433807373, 0.5967591886155175, 1707435830297494608, 
0.5701601505279541, -0.15705442428588867, 0.6007365536758478, 1707435830307471699, 
-0.37171822786331177, 0.380043625831604, 0.5949136725937643, 1707435830317455617, 
-0.5761275291442871, 0.5998616814613342, 0.5858689303166086, 1707435830327502403, 
-0.13939309120178223, 0.274768590927124, 0.5880900082655721, 1707435830337477080, 
0.2366950511932373, -0.9386564493179321, 0.5909290770365975, 1707435830347441597, 
0.47770607471466064, 0.35396504402160645, 0.5379503527330882, 1707435830358885946, 
-0.02878403663635254, 0.7809460163116455, 0.7296058131475472, 1707435830367464434, 
0.0002263188362121582, -0.35341137647628784, 0.6169113482651296, 1707435830377477139, 
-0.28074198961257935, 0.39592915773391724, 0.6147106772995277, 1707435830387530912, 
-0.4548371434211731, 0.5744172930717468, 0.6145763437465667, 1707435830397501235, 
-0.21733957529067993, 0.43715012073516846, 0.5995942596098294, 1707435830407678495, 
0.3381580114364624, 0.3108106255531311, 0.609684677860127, 1707435830417511981, 
0.50863116979599, -0.3707171082496643, 0.5794669500785821, 1707435830427515148, 
0.05195814371109009, 0.8832684755325317, 0.48111429798973415, 1707435830439603198, 
-0.20204347372055054, 0.7713940143585205, 0.728380471842721, 1707435830447490910, 
-0.3595890998840332, -0.6400957703590393, 0.5743610935439778, 1707435830457494686, 
-0.3415488004684448, 0.1332263946533203, 0.5914933917209715, 1707435830467573170, 
-0.0837671160697937, 0.245771586894989, 0.6109131268367444, 1707435830477499683, 
0.21655356884002686, -0.056676268577575684, 0.6255339096997714, 1707435830487529202, 
0.3441923260688782, 0.18695586919784546, 0.6453196571055213, 1707435830497498223, 
0.08582592010498047, -0.11327862739562988, 0.6411501916131467, 1707435830507497269, 
-0.2150815725326538, 0.9622668623924255, 0.5480114473436151, 1707435830519233935, 
-0.036192238330841064, 0.6880905628204346, 0.7647075055815423, 1707435830527470495, 
0.14778995513916016, -0.4322846531867981, 0.6132144378505778, 1707435830537732709, 
0.32883352041244507, 0.2584781050682068, 0.6650710666156638, 1707435830547515962, 
-0.1663351058959961, 0.4010298252105713, 0.6383696657665738, 1707435830557691548, 
-0.48033684492111206, 0.5750484466552734, 0.6537684367951685, 1707435830567514224, 
0.46450358629226685, 0.2425464391708374, 0.6281185021886904, 1707435830577499545, 
0.26479047536849976, -0.4958231449127197, 0.6041994782932212, 1707435830587570706, 
-0.12139648199081421, 0.7184333205223083, 0.5244912528472175, 1707435830599123854, 
-0.5653584003448486, 0.6179947257041931, 0.712622376458064, 1707435830607478289, 
-0.20531010627746582, -0.4609759449958801, 0.5926976623517252, 1707435830617479193, 
0.0475461483001709, 0.14807629585266113, 0.5986964939867133, 1707435830627627016, 
0.059617817401885986, 0.3609064817428589, 0.6108302418418265, 1707435830637696657, 
0.4899521470069885, 0.48163628578186035, 0.63291790177979, 1707435830647539771, 
-0.011396408081054688, 0.1805233359336853, 0.6209551884707704, 1707435830657526247, 
-0.2116956114768982, -0.25939512252807617, 0.6159559914425193, 1707435830667488955, 
-0.3218129873275757, 0.5704681277275085, 0.5081626312389105, 1707435830679565022, 
-0.2029309868812561, 0.6157166957855225, 0.7566372427081978, 1707435830687492946, 
0.2260345220565796, -0.1017189621925354, 0.5821469577320101, 1707435830697522901, 
0.4577966332435608, 0.44983428716659546, 0.5718410440202595, 1707435830707518086, 
-0.09180009365081787, 0.20827853679656982, 0.5716752838313853, 1707435830717506300, 
-0.28968220949172974, 0.1677323579788208, 0.5879076283397796, 1707435830727544498, 
0.04400360584259033, 0.1313943862915039, 0.6071501200926263, 1707435830737504173, 
-0.5389944314956665, -0.25817054510116577, 0.6222772402233873, 1707435830747446453, 
0.2871084213256836, 0.451590359210968, 0.5380898354646974, 1707435830759183185, 
-0.09823775291442871, 0.2445734739303589, 0.7692392980193671, 1707435830767449405, 
0.16409921646118164, -0.008132338523864746, 0.6424200313840847, 1707435830777487533, 
0.10355806350708008, 0.6990357041358948, 0.6456302167244121, 1707435830787499111, 
-0.18387985229492188, 0.252052903175354, 0.642099613579138, 1707435830797482449, 
-0.0069427490234375, 0.25563889741897583, 0.6304788280210349, 1707435830807607371, 
-0.05259436368942261, 0.1254291534423828, 0.6363499362636387, 1707435830817497425, 
0.25423169136047363, 0.05993598699569702, 0.6229037318153006, 1707435830827519660, 
-0.14220774173736572, 0.6969135999679565, 0.5135925856808593, 1707435830839503337, 
-0.11163079738616943, -0.03708541393280029, 0.7628246576111193, 1707435830847479307, 
0.09760111570358276, -0.232618510723114, 0.6163953572296887, 1707435830857517452, 
0.3484398126602173, 0.8416072130203247, 0.6242716384719252, 1707435830867541076, 
0.04169994592666626, 0.166672945022583, 0.626742387898108, 1707435830877508264, 
-0.2829148769378662, -0.03786802291870117, 0.6249364867101584, 1707435830887571941, 
-0.05949646234512329, -0.31770598888397217, 0.6324689403301137, 1707435830897522186, 
-0.2563248872756958, -0.016444146633148193, 0.6349861016820736, 1707435830907533201, 
-0.16993755102157593, 1.1992167234420776, 0.5365779537041705, 1707435830919230687, 
-0.4050900340080261, -0.060996294021606445, 0.7366630203911172, 1707435830927512896, 
0.07505536079406738, -0.3453681468963623, 0.6079118232679191, 1707435830937522530, 
-0.013400912284851074, 0.7600153684616089, 0.5965240255103755, 1707435830947555385, 
0.209619402885437, 0.639778733253479, 0.5999491248024273, 1707435830957479342, 
0.1376558542251587, 0.7370633482933044, 0.5957959144607287, 1707435830967546103, 
0.09610503911972046, -0.2925992012023926, 0.6026982995579956, 1707435830977523817, 
0.08074051141738892, -0.294253408908844, 0.6174086071470882, 1707435830987488807, 
-0.5774738192558289, 0.7859042882919312, 0.49379373539118887, 1707435830999907176, 
-0.396672785282135, -0.2156427502632141, 0.8049639655098306, 1707435831007453441, 
0.25318318605422974, -0.6049782633781433, 0.6110041593431677, 1707435831017500258, 
0.5550669431686401, 0.562911868095398, 0.5982151696735468, 1707435831027589952, 
-0.07329297065734863, 0.4964849352836609, 0.5950826142751321, 1707435831037605989, 
0.25833290815353394, 0.6961758136749268, 0.5960635545079384, 1707435831047544885, 
-0.06049787998199463, -0.1804460883140564, 0.5934459815066494, 1707435831057520140, 
-0.5996630787849426, -0.02486199140548706, 0.6200981812233537, 1707435831067480149, 
-0.1452983021736145, 0.8818573951721191, 0.5298619846072703, 1707435831079266648, 
-0.16568118333816528, -0.2609529495239258, 0.7617967639780159, 1707435831087479201, 
0.9393950700759888, 0.20025700330734253, 0.6318035592000414, 1707435831097524205, 
0.5619910359382629, 0.8965538144111633, 0.6226325470018559, 1707435831107579047, 
-0.5596815347671509, 0.42561179399490356, 0.6305603525493223, 1707435831117489135, 
-0.5139617919921875, 0.060869812965393066, 0.6241416490481454, 1707435831127597003, 
-0.6183292269706726, -0.5811231136322021, 0.646222370552925, 1707435831137519565, 
0.11711686849594116, 0.10106348991394043, 0.6555713791689647, 1707435831147513540, 
0.5382001399993896, 0.9577323794364929, 0.5403141257346312, 1707435831159449953, 
0.02826988697052002, -0.269072949886322, 0.7920464529801933, 1707435831167483312, 
0.07411658763885498, -0.12575161457061768, 0.6320540806694503, 1707435831177556556, 
-0.36677086353302, 0.7496836185455322, 0.6259476301524055, 1707435831187540868, 
-0.498368501663208, 0.431166410446167, 0.619746430301235, 1707435831197496672, 
0.16673409938812256, 0.18980807065963745, 0.6049865032313126, 1707435831207520418, 
0.12275701761245728, -0.3434731364250183, 0.6097241920935383, 1707435831217493401, 
0.5495036244392395, 0.5618323087692261, 0.6140609538487086, 1707435831227502816, 
0.05394899845123291, 1.1694235801696777, 0.5093194164333594, 1707435831239249652, 
-0.11604011058807373, -0.5132861137390137, 0.72388444529942, 1707435831247476379, 
-0.31704574823379517, -0.24975383281707764, 0.6046811170570595, 1707435831257498141, 
-0.2911950945854187, 0.5533980131149292, 0.6057851392619876, 1707435831267545195, 
-0.2277246117591858, -0.013171970844268799, 0.6084789273665313, 1707435831277503788, 
-0.06602859497070312, 0.13435232639312744, 0.5934924131444476, 1707435831287551492, 
0.46338701248168945, -0.18627667427062988, 0.5990845964757708, 1707435831297531348, 
0.3394289016723633, 0.8590178489685059, 0.6087094588143722, 1707435831307545723, 
0.12236320972442627, 0.9704487919807434, 0.49542518055475915, 1707435831319903048, 
-0.251924991607666, -0.672480583190918, 0.8211870020265297, 1707435831327533617, 
-0.14505010843276978, 0.07230228185653687, 0.6166744505993887, 1707435831337816662, 
-0.2790607810020447, 0.7786073684692383, 0.6455509339774106, 1707435831347559038, 
0.03224349021911621, 0.2759472727775574, 0.6261662313153735, 1707435831357567166, 
0.16892600059509277, 0.03342539072036743, 0.6144433911400814, 1707435831367547832, 
0.1416870355606079, -0.4750726819038391, 0.6076836057855424, 1707435831377506401, 
-0.0042414069175720215, 0.5458751916885376, 0.5985553630162583, 1707435831387537392, 
-0.5381516218185425, 1.167195200920105, 0.49864015448228266, 1707435831399516693, 
0.36292827129364014, -0.517785370349884, 0.7833878776816587, 1707435831407510562, 
0.45156174898147583, 0.09182912111282349, 0.6483937648001523, 1707435831417482780, 
0.007945001125335693, 0.4970285892486572, 0.6274681311324618, 1707435831427737359, 
-0.13539493083953857, 0.17974156141281128, 0.6517471898655881, 1707435831437578661, 
-0.23171567916870117, 0.6106363534927368, 0.6259779094461952, 1707435831447623412, 
-0.43607133626937866, -0.5247370004653931, 0.6322247923868444, 1707435831457578116, 
-0.009553730487823486, 0.9723695516586304, 0.6129576077814233, 1707435831467838841, 
0.11991065740585327, -0.6148487329483032, 0.5280046298922061, 1707435831479357484, 
0.3218221068382263, 0.2568303346633911, 0.7317428326081101, 1707435831487645554, 
-0.5042739510536194, 0.33031970262527466, 0.6008144938587422, 1707435831497589514, 
-0.22780364751815796, -0.024029672145843506, 0.5870399179521185, 1707435831507790197, 
0.11270397901535034, 0.3627215623855591, 0.6204728787434474, 1707435831517589672, 
0.09591251611709595, -0.49286288022994995, 0.5982499100594503, 1707435831527604061, 
0.5406550168991089, 0.28649479150772095, 0.6163873479826499, 1707435831537530654, 
-0.17870891094207764, 0.7121481895446777, 0.6207990239388814, 1707435831547505460, 
-0.20688825845718384, -0.19652128219604492, 0.5139924724349119, 1707435831559304043, 
0.3211679458618164, 0.7517949938774109, 0.7365855161271887, 1707435831567507455, 
0.07114088535308838, 0.47142428159713745, 0.588924089203961, 1707435831577550331, 
-0.18022805452346802, 0.049799442291259766, 0.5921147328389422, 1707435831587574462, 
0.12652891874313354, 0.2942045331001282, 0.6141632499345101, 1707435831597540294, 
-0.6529741883277893, -0.332966148853302, 0.6117800549154055, 1707435831607571928, 
-0.27583861351013184, 0.8941050171852112, 0.6201529104189809, 1707435831617538497, 
0.29197776317596436, 0.7948333621025085, 0.6084696102880671, 1707435831627549954, 
0.1356593370437622, -0.9394561052322388, 0.4874588760962218, 1707435831639913582, 
0.4499571919441223, 0.21790087223052979, 0.8195751564199845, 1707435831647477492, 
-0.3076443076133728, 0.5891973376274109, 0.6024521740644355, 1707435831657806510, 
-0.2620905041694641, -0.0007338523864746094, 0.6415050883929646, 1707435831667523105, 
-0.35630470514297485, -0.018189549446105957, 0.6313403325222685, 1707435831677524304, 
-0.16684645414352417, -0.22271353006362915, 0.6280655765757662, 1707435831687537621, 
0.42627185583114624, 0.9467688798904419, 0.6315515211621788, 1707435831697505428, 
0.289706826210022, 0.49176692962646484, 0.612789371493724, 1707435831707502429, 
0.3161587715148926, -0.5127694010734558, 0.5024350875987185, 1707435831719427723, 
-0.25534915924072266, 0.5302181839942932, 0.750208794990332, 1707435831727528024, 
-0.5743182897567749, 0.8846105337142944, 0.6072300343490932, 1707435831737572118, 
-0.28091639280319214, 0.4093353748321533, 0.6016996031605324, 1707435831747560666, 
0.40670984983444214, -0.03805065155029297, 0.5945063939637064, 1707435831757528856, 
0.7383341789245605, -0.28291499614715576, 0.5793214241880579, 1707435831767721041, 
-0.19128364324569702, 0.5557655692100525, 0.6228306029260406, 1707435831777551630, 
-0.35527461767196655, 0.38278132677078247, 0.6231769163825688, 1707435831787537622, 
-0.10861378908157349, -1.091510534286499, 0.5374083883153731, 1707435831799167942, 
-0.3310491442680359, 0.30129683017730713, 0.7635234385985132, 1707435831807494955, 
0.11312687397003174, 0.8192958831787109, 0.6227328025948767, 1707435831817542054, 
0.2747038006782532, 0.4672810435295105, 0.6038259222744783, 1707435831827623313, 
0.2598873972892761, 0.34307026863098145, 0.6070663742988619, 1707435831837512615, 
0.025351643562316895, 0.0244138240814209, 0.588766712223952, 1707435831847619989, 
-0.34103667736053467, 0.9675363898277283, 0.6041047901368461, 1707435831857514634, 
0.29879266023635864, 0.24661153554916382, 0.5911229309031909, 1707435831867508494, 
0.19355130195617676, -0.5784013867378235, 0.49855868690373667, 1707435831879271306, 
-0.08837705850601196, 0.5296179056167603, 0.7241470766195822, 1707435831887486864, 
-0.7192752361297607, 0.6561610698699951, 0.5935753865572303, 1707435831897511785, 
-0.4034550189971924, -0.3438798189163208, 0.6038802047003758, 1707435831907554512, 
0.44496244192123413, -0.1290016770362854, 0.621900512032022, 1707435831917659576, 
0.14548903703689575, -0.20906192064285278, 0.6573298000450236, 1707435831927562517, 
0.1586340069770813, 0.813057541847229, 0.6699182423086627, 1707435831937529340, 
-0.2693643569946289, 0.31885015964508057, 0.6573013644301418, 1707435831947518796, 
-0.13406306505203247, -0.35323894023895264, 0.5226020603198405, 1707435831959967608, 
-0.36915653944015503, 1.1396558284759521, 0.8548092265205179, 1707435831967554311, 
-0.3573830723762512, 0.5850916504859924, 0.6344201315900991, 1707435831977526912, 
0.5211198329925537, -0.10647463798522949, 0.617533338067279, 1707435831987590438, 
0.42361021041870117, 0.06948143243789673, 0.6162898147603907, 1707435831997550719, 
0.14608407020568848, 0.24985849857330322, 0.6137734698497705, 1707435832007574711, 
-0.19283777475357056, 1.2526005506515503, 0.6085893977591486, 1707435832017701546, 
-0.26594096422195435, -0.1346043348312378, 0.6134066427260914, 1707435832027541116, 
-0.2529277205467224, -0.9100949168205261, 0.5188044790999167, 1707435832039310686, 
-0.031162679195404053, 0.5615068674087524, 0.7580767214029503, 1707435832047506881, 
-0.21520346403121948, 0.13573169708251953, 0.6146453043498942, 1707435832057582550, 
0.24300885200500488, -0.1789151430130005, 0.6266399153583956, 1707435832067532542, 
0.09560775756835938, -0.14846712350845337, 0.620486605278504, 1707435832077528676, 
-0.3932388424873352, 0.27183425426483154, 0.5952371746530449, 1707435832087937855, 
0.0708659291267395, 1.2436916828155518, 0.6472102626132205, 1707435832097516799, 
0.021029889583587646, 0.03381425142288208, 0.6187875262462441, 1707435832107494402, 
0.30989962816238403, -0.29310184717178345, 0.5404165018393247, 1707435832119199164, 
-0.10999566316604614, 0.590859055519104, 0.7554168654697568, 1707435832127515287, 
-0.15514659881591797, 0.3530611991882324, 0.5952812888574103, 1707435832137753886, 
-0.08557599782943726, 0.5737635493278503, 0.6089406157888531, 1707435832147550941, 
0.2810106873512268, -0.012761116027832031, 0.5776106963076858, 1707435832157529618, 
-0.05740952491760254, -0.17475789785385132, 0.5665816004512385, 1707435832167570000, 
-0.6215240955352783, 0.6754336953163147, 0.5732093463663488, 1707435832177550096, 
0.14597588777542114, -0.0907335877418518, 0.5766306150443046, 1707435832187565202, 
0.16836297512054443, -0.23598504066467285, 0.5034984867975031, 1707435832199514064, 
0.30583423376083374, 0.6266997456550598, 0.7741490502612737, 1707435832207533554, 
-0.0891408920288086, 0.17532658576965332, 0.6193684547875163, 1707435832217745354, 
-0.12168991565704346, 0.37174129486083984, 0.645339109368016, 1707435832227612701, 
-0.03674274682998657, 0.18617701530456543, 0.6347905386141445, 1707435832237559959, 
-0.1534251570701599, 0.26568323373794556, 0.6368943266557449, 1707435832247583829, 
-0.014940440654754639, 0.7119927406311035, 0.6418441698338722, 1707435832257547755, 
0.18168526887893677, -0.243785560131073, 0.6396986090673874, 1707435832267511698, 
0.22456449270248413, 0.19676601886749268, 0.5290772045475897, 1707435832279640033, 
-0.12523388862609863, 0.8038833141326904, 0.8101599760782624, 1707435832287494409, 
-0.08271276950836182, -0.10628366470336914, 0.6384203075216384, 1707435832297521817, 
-0.01875680685043335, -0.08452451229095459, 0.6417626681684125, 1707435832307571510, 
0.11888033151626587, -0.025900542736053467, 0.6352940412978245, 1707435832317662926, 
-0.22476190328598022, 0.27079445123672485, 0.6500306044296884, 1707435832327549247, 
-0.32802116870880127, 0.6402208805084229, 0.6350979763212141, 1707435832337525493, 
-0.33499109745025635, -0.20251905918121338, 0.6269791388004474, 1707435832347503207, 
0.18190240859985352, 0.33200764656066895, 0.5306830258824008, 1707435832359332972, 
0.35087209939956665, 0.7132584452629089, 0.7633376236727113, 1707435832367511723, 
-0.06715738773345947, -0.022971808910369873, 0.6262324215181053, 1707435832377536568, 
0.10761779546737671, 0.2583904266357422, 0.6227946168002021, 1707435832387597534, 
-0.3297843337059021, 0.10224604606628418, 0.6302173175111389, 1707435832397531484, 
-0.05865800380706787, 0.3632965683937073, 0.5926461113311836, 1707435832408052257, 
-0.06820458173751831, 0.4810367226600647, 0.6376610402647931, 1707435832417571316, 
0.1831272840499878, -0.5872272253036499, 0.6081916909843879, 1707435832427542013, 
0.5714387893676758, 0.39839863777160645, 0.5217643613575776, 1707435832439319278, 
-0.2147936224937439, 0.818912148475647, 0.7448909226071455, 1707435832447534384, 
-0.3062422275543213, -0.22628891468048096, 0.6047750417330974, 1707435832457841857, 
-0.1776726245880127, -0.07159602642059326, 0.6496818069067951, 1707435832467636494, 
-0.2571297287940979, -0.00866854190826416, 0.6502446590000838, 1707435832477586670, 
0.1745898723602295, 0.5503056645393372, 0.6506173582621124, 1707435832487597553, 
0.08449536561965942, 0.66830974817276, 0.640337328149288, 1707435832497551134, 
-0.19591987133026123, -0.6034991145133972, 0.6391025869951859, 1707435832507529874, 
-0.1513512134552002, 0.4779565930366516, 0.5296304694687551, 1707435832519591944, 
-0.46359461545944214, 1.0204554796218872, 0.7829719079417806, 1707435832527554101, 
0.16426265239715576, 0.3835543394088745, 0.6195886442629776, 1707435832537532069, 
0.8667859435081482, 0.2829285264015198, 0.6172310960990435, 1707435832547556712, 
0.601708173751831, -0.19346511363983154, 0.6336431444060319, 1707435832557555584, 
-0.17022943496704102, 0.600688636302948, 0.6494984298234882, 1707435832567573420, 
-0.6895424127578735, 0.3677103519439697, 0.6454738579878966, 1707435832577547102, 
-0.14655226469039917, -0.9675293564796448, 0.636000459060981, 1707435832587710358, 
-0.2436511516571045, 0.2780954837799072, 0.5393478149645246, 1707435832599716473, 
0.15768784284591675, 0.7514927983283997, 0.8115159591290478, 1707435832607545043, 
-0.04405391216278076, 0.19638913869857788, 0.6076997605138043, 1707435832617835337, 
0.15962344408035278, 0.18358522653579712, 0.6291233123208327, 1707435832627642747, 
-0.04357004165649414, -0.19369781017303467, 0.6089587918494022, 1707435832637845388, 
-0.3864275813102722, 0.6315892338752747, 0.6404120279320025, 1707435832647604536, 
0.048618853092193604, 0.1439296007156372, 0.6132829772815687, 1707435832657594771, 
-0.14328134059906006, -0.44251757860183716, 0.6095200858593118, 1707435832667531524, 
0.036718666553497314, 1.1596266031265259, 0.49220442673469833, 1707435832679545480, 
-0.10730946063995361, 1.0157105922698975, 0.7246833747192463, 1707435832687559133, 
-0.07649427652359009, -0.24859720468521118, 0.5926262695947198, 1707435832697557324, 
0.05272430181503296, -0.5197421908378601, 0.609423741778115, 1707435832707612116, 
0.16947972774505615, -0.2676623463630676, 0.6272271995998634, 1707435832717696297, 
-0.25164347887039185, 0.9170815348625183, 0.6292436039690882, 1707435832727671729, 
-0.2260805368423462, 0.3006283640861511, 0.6228145902598046, 1707435832737579984, 
0.2800530195236206, -0.7416394948959351, 0.6226717417049601, 1707435832747619222, 
0.05809521675109863, 0.6981446743011475, 0.5347177465608447, 1707435832759318176, 
0.1955156922340393, 0.8917413353919983, 0.7484015776843668, 1707435832767604855, 
-0.08993393182754517, 0.39570313692092896, 0.6161787453700205, 1707435832777624770, 
-0.1437116265296936, -0.0790746808052063, 0.6165024536534975, 1707435832787675567, 
0.23290908336639404, 1.1964691877365112, 0.6843751423489494, 1707435832796871039, 
0.19081765413284302, 0.16932553052902222, 0.5679682063018024, 1707435832807832902, 
-0.038222551345825195, -0.674416184425354, 0.6229216689865654, 1707435832817712075, 
0.02008664608001709, 0.42785441875457764, 0.6265999328085005, 1707435832827627538, 
-0.5192715525627136, 0.22793900966644287, 0.5277015828493135, 1707435832839345236, 
-0.11863619089126587, -0.15267348289489746, 0.7516607727258805, 1707435832847575591, 
0.06096607446670532, -0.0722305178642273, 0.610849032564456, 1707435832857599514, 
0.4056668281555176, 0.034974634647369385, 0.6040732822719742, 1707435832867639499, 
0.3526933789253235, 0.9450576305389404, 0.6084894390262894, 1707435832877613491, 
-0.19633185863494873, -0.03067600727081299, 0.6023863903558037, 1707435832887615939, 
-0.24626898765563965, -0.33765870332717896, 0.6080941947999645, 1707435832897583993, 
-0.40708309412002563, 0.7097131013870239, 0.6157614781375047, 1707435832907567749, 
-0.35952913761138916, 0.39940255880355835, 0.5018282479766668, 1707435832919724384, 
0.13995951414108276, 0.05616474151611328, 0.7652877505113498, 1707435832927606693, 
0.2690761089324951, 0.06803518533706665, 0.6448258526825834, 1707435832936877839, 
-0.14549660682678223, 0.25825679302215576, 0.5557514752735252, 1707435832947603693, 
-0.22117936611175537, 1.1019067764282227, 0.5985138953107515, 1707435832957562168, 
-0.3309086561203003, -0.15375274419784546, 0.5721660945173079, 1707435832967796928, 
0.20568853616714478, -0.4181438088417053, 0.6046556217719262, 1707435832977581909, 
0.24419736862182617, 0.6011282205581665, 0.5996147683098811, 1707435832987738818, 
-0.31403660774230957, 0.08663225173950195, 0.5332934596870624, 1707435832999289725, 
-0.10353171825408936, 0.0069155097007751465, 0.7537241130585682, 1707435833007532814, 
0.2526592016220093, 0.06182616949081421, 0.6009921865464133, 1707435833017817546, 
0.02128821611404419, -0.0011860132217407227, 0.6338502972557802, 1707435833027600256, 
-0.19401103258132935, 0.9496645927429199, 0.628210429718165, 1707435833037575862, 
-0.159604012966156, 0.17005783319473267, 0.6007517013010071, 1707435833047763689, 
-0.21783781051635742, 0.1849665641784668, 0.6145407419101576, 1707435833057608170, 
0.1321541666984558, 0.7486838102340698, 0.6062292009367791, 1707435833067540286, 
0.3821384310722351, -0.047669291496276855, 0.5347162299926892, 1707435833078852874, 
0.4202127456665039, 0.17795127630233765, 0.7268323598699257, 1707435833087564486, 
0.017031967639923096, -0.07586050033569336, 0.6388795469160996, 1707435833097581119, 
-0.3149309754371643, -0.23018449544906616, 0.6368407625663781, 1707435833107612440, 
-0.5255634784698486, 0.4800645709037781, 0.6335290572176121, 1707435833117755988, 
-0.5102904438972473, -0.004481613636016846, 0.6431252554047391, 1707435833127601001, 
0.36409467458724976, 0.29319536685943604, 0.6343569217939033, 1707435833137575619, 
0.6662748456001282, 0.7634421586990356, 0.6283414340675146, 1707435833147569051, 
0.3411252498626709, 0.011466026306152344, 0.5281137094911046, 1707435833159353769, 
-0.22317719459533691, 0.24706554412841797, 0.7686659674656721, 1707435833167552785, 
-0.30987948179244995, -0.08142733573913574, 0.6196337749970982, 1707435833177601292, 
-0.5001757740974426, 0.5601886510848999, 0.6090222080456709, 1707435833187634078, 
-0.1744036078453064, 1.0639358758926392, 0.6013305430755083, 1707435833197558618, 
0.2601873278617859, -0.4293873906135559, 0.574850687152254, 1707435833207570186, 
0.24333876371383667, -0.419251024723053, 0.5693971802575126, 1707435833217740413, 
-0.1147642731666565, 0.7737573981285095, 0.6074597253452635, 1707435833227571544, 
-0.3417015075683594, 0.0862569808959961, 0.5087747883807274, 1707435833239676523, 
-0.4869368076324463, -0.21856951713562012, 0.8034754313609958, 1707435833247534293, 
0.45803970098495483, -0.0022493600845336914, 0.6194897694284156, 1707435833257774771, 
-0.642642080783844, 0.4385490417480469, 0.6474901500307725, 1707435833267626925, 
-0.9437311291694641, 0.9945891499519348, 0.6326312691182395, 1707435833277610013, 
0.8326258659362793, -0.21053647994995117, 0.5943505080553514, 1707435833287952026, 
0.33209675550460815, -0.0980340838432312, 0.6285797596675915, 1707435833297598988, 
1.1992530822753906, 0.6847363114356995, 0.598938895345433, 1707435833307579199, 
0.3966449499130249, 0.3527480959892273, 0.5077394225341874, 1707435833319362335, 
-0.28423136472702026, 0.2606651782989502, 0.7383992461996829, 1707435833327599295, 
-0.29493969678878784, -0.07880944013595581, 0.6541615796993067, 1707435833336864211, 
-1.1685651540756226, 0.034256815910339355, 0.5696508173007336, 1707435833347640107, 
0.2280864119529724, 0.540046751499176, 0.6253161363587452, 1707435833357615873, 
-0.09971916675567627, -0.5267618298530579, 0.6230478611306179, 1707435833367718715, 
0.5208831429481506, -0.0916060209274292, 0.6511637042429158, 1707435833377613906, 
-0.22083359956741333, 0.8857272863388062, 0.6438574831262214, 1707435833387602465, 
-0.604678750038147, 0.5021020770072937, 0.5034172589287961, 1707435833400152870, 
0.3171873092651367, 0.6907386183738708, 0.8466521163709299, 1707435833407528389, 
-0.44147998094558716, 0.06742697954177856, 0.6182857411723853, 1707435833417605735, 
0.7214626669883728, 0.2791626453399658, 0.635578721280206, 1707435833427600736, 
0.27804023027420044, 0.4762526750564575, 0.6381282700556152, 1707435833437581757, 
0.10914492607116699, -0.24834662675857544, 0.6294611492174788, 1707435833447620334, 
0.04470890760421753, 0.18346261978149414, 0.6373477526549343, 1707435833457583369, 
-0.8413513898849487, 0.7563855648040771, 0.6176598320075822, 1707435833467821781, 
-0.36299335956573486, -0.36715781688690186, 0.5583223867744119, 1707435833479259766, 
-0.580891489982605, -0.12276893854141235, 0.7788027232101179, 1707435833487566076, 
0.20199435949325562, -0.146684467792511, 0.6386999029591011, 1707435833497618789, 
0.5201347470283508, 0.5031059384346008, 0.6367689475169781, 1707435833507607963, 
0.04865610599517822, 0.6191209554672241, 0.6223925031337831, 1707435833517601830, 
0.22173237800598145, -0.7232269644737244, 0.6145619296179194, 1707435833527639871, 
-0.0929839015007019, 0.5759055018424988, 0.6203813954483121, 1707435833537609178, 
-0.48911726474761963, 1.0122045278549194, 0.608967532363561, 1707435833547572693, 
-0.4153669476509094, 0.031732380390167236, 0.4917752053933346, 1707435833559740232, 
0.03782576322555542, 0.22082358598709106, 0.7543856204612054, 1707435833567574114, 
0.7868748903274536, 0.2007904052734375, 0.5854805231270637, 1707435833577630169, 
0.5340538620948792, 1.1860984563827515, 0.5939734893418595, 1707435833587639639, 
-0.06011974811553955, 0.5697181820869446, 0.5886151275472357, 1707435833597600817, 
0.004505813121795654, -0.8281480669975281, 0.5874670210409921, 1707435833607635850, 
-0.44122952222824097, 0.30372220277786255, 0.589722014372199, 1707435833617788205, 
-0.3601074814796448, 0.33728742599487305, 0.6083306594273061, 1707435833627580602, 
-0.34496456384658813, -0.5673882961273193, 0.5026185133272358, 1707435833639637208, 
0.3660687208175659, -0.26841527223587036, 0.782483097580324, 1707435833647551466, 
0.3040462136268616, 0.09940004348754883, 0.6273576348312995, 1707435833657649382, 
-0.29545342922210693, 0.8308326005935669, 0.6477964182024795, 1707435833667610111, 
-0.22847992181777954, 0.6491522192955017, 0.6379336837556792, 1707435833677606009, 
-0.21673732995986938, -0.4831927418708801, 0.6360346591028735, 1707435833687751725, 
-0.03578883409500122, 0.6894192099571228, 0.664870723480127, 1707435833697597566, 
-0.3651803731918335, 0.5930699110031128, 0.6513226852744417, 1707435833707566653, 
0.2527109980583191, 0.2355334758758545, 0.546882411420604, 1707435833719403786, 
0.5643842220306396, 0.47612446546554565, 0.7679307032535007, 1707435833727619500, 
0.043238937854766846, 0.059749484062194824, 0.6217589622230305, 1707435833737648672, 
-0.4520159363746643, 0.6717357039451599, 0.6221695112632204, 1707435833747658007, 
-0.423311710357666, -0.0012826919555664062, 0.6692806845872874, 1707435833756879086, 
0.38958561420440674, -0.643430769443512, 0.5814156123078392, 1707435833767659267, 
0.24979794025421143, 0.6585371494293213, 0.6355840853211837, 1707435833777621451, 
-0.03340041637420654, 0.4824707508087158, 0.6332553175080877, 1707435833787617999, 
-0.062009572982788086, -0.1625126600265503, 0.5471068654717349, 1707435833799325771, 
-0.03647947311401367, 0.010963737964630127, 0.7761061072989154, 1707435833807592626, 
-0.2933163642883301, 0.1761835217475891, 0.6414434672631616, 1707435833817611478, 
0.08047306537628174, 0.8935866355895996, 0.6256468105690783, 1707435833827746960, 
-0.23485589027404785, 0.11495190858840942, 0.6234430371946722, 1707435833837704670, 
-0.05190908908843994, -0.18039339780807495, 0.6181332548611481, 1707435833847713351, 
0.1426790952682495, 0.9005829095840454, 0.6129669791715624, 1707435833857631746, 
-0.1956232786178589, 0.2712886333465576, 0.6048119297462531, 1707435833867569424, 
0.3434467315673828, -0.10605508089065552, 0.4881021454501451, 1707435833880013331, 
-0.046542227268218994, -0.11717122793197632, 0.8118682259935154, 1707435833887566125, 
-0.33889007568359375, 0.04549950361251831, 0.6211801509414946, 1707435833897584590, 
-0.4614047408103943, 0.5904088020324707, 0.6220330247180739, 1707435833907599761, 
0.02417367696762085, -0.0405769944190979, 0.6288586890896982, 1707435833917549158, 
0.45864421129226685, 0.06394171714782715, 0.6367889316368239, 1707435833927629499, 
0.39645880460739136, 0.8318799138069153, 0.6458424523452336, 1707435833937614990, 
-0.09971016645431519, 0.20466041564941406, 0.6409973331310144, 1707435833947577660, 
-0.4917277693748474, 0.14073938131332397, 0.5250241594354589, 1707435833959634621, 
0.016456782817840576, 0.23746782541275024, 0.7834848838423093, 1707435833967606754, 
-0.14346188306808472, 0.15140151977539062, 0.6215207309448794, 1707435833977622009, 
0.4203431010246277, 0.4547919034957886, 0.6124604941702619, 1707435833987628366, 
0.14469307661056519, -0.36078518629074097, 0.6110307357083944, 1707435833997629948, 
-0.07975846529006958, 0.19915622472763062, 0.6132896074342049, 1707435834007768383, 
-0.498843789100647, 1.0190118551254272, 0.6315907452502862, 1707435834017665793, 
