acc_x, acc_y, angular_z, stamp, 
0.025632739067077637, -0.02130943536758423, 1.6096295201514284e-10, 1707435867929572233, 
-0.019351422786712646, 0.027243494987487793, 2.223419117943263e-10, 1707435867937904198, 
-0.01228630542755127, 0.025374948978424072, 1.9845849516861203e-10, 1707435867948845817, 
0.009107470512390137, 0.04315352439880371, 1.8592631174723187e-10, 1707435867961050650, 
0.007208108901977539, 0.01251232624053955, 2.004131250609066e-10, 1707435867968847446, 
-0.010834991931915283, -0.028858482837677002, 1.8262402654145867e-10, 1707435867979159684, 
0.0070157647132873535, -0.009178519248962402, 1.9777763698028721e-10, 1707435867988927549, 
0.012299776077270508, -0.0020394325256347656, 2.2299570900263225e-10, 1707435867997854424, 
0.0031803250312805176, -0.01109987497329712, 1.8187291449608444e-10, 1707435868009093068, 
0.003116309642791748, 0.019430935382843018, 1.4097467561864938e-10, 1707435868019208731, 
0.02815622091293335, 0.014013111591339111, 2.118536668433778e-10, 1707435868027854358, 
0.029757797718048096, 0.006714999675750732, 1.4058900118173834e-10, 1707435868041503247, 
0.0008404254913330078, -0.009538769721984863, 2.1894445903721128e-10, 1707435868048826164, 
0.0007911324501037598, 0.0013245940208435059, 2.284997694222035e-10, 1707435868057860594, 
-0.019137561321258545, 0.011940598487854004, 1.240566087087413e-10, 1707435868067879783, 
-0.010199248790740967, 0.015508174896240234, 1.1435004685248772e-10, 1707435868078804028, 
0.0076215267181396484, -0.00798177719116211, 1.1941628869359995e-10, 1707435868089298181, 
0.016536712646484375, -0.020525574684143066, 1.3318682800496948e-10, 1707435868098785434, 
-0.02485215663909912, -0.01516801118850708, 7.916165472028674e-11, 1707435868108803882, 
-0.021289050579071045, 0.011745214462280273, 9.53529966580984e-11, 1707435868121807011, 
0.007430732250213623, 0.002764105796813965, 1.7369757834741373e-10, 1707435868128845661, 
0.00020706653594970703, 0.015280604362487793, 1.2008326130023182e-10, 1707435868138852773, 
0.010892629623413086, -0.008163809776306152, 1.3186104444813991e-10, 1707435868147866657, 
-0.014232993125915527, -0.0009467005729675293, 1.0667414638625149e-10, 1707435868158816965, 
-0.028637826442718506, -0.0010545849800109863, 2.2357819413413104e-11, 1707435868169106504, 
-0.01778334379196167, 0.006143629550933838, 2.309242052069269e-11, 1707435868178840079, 
-0.0033730268478393555, 0.020443499088287354, 6.433645103190851e-11, 1707435868188829616, 
0.002088010311126709, 0.04192465543746948, -4.854563496966159e-06, 1707435868201107639, 
0.025417625904083252, 0.005856513977050781, -7.717097847226973e-06, 1707435868208831380, 
0.014644443988800049, -0.017539680004119873, -5.916091125919405e-06, 1707435868218906489, 
0.0038465261459350586, 0.009316861629486084, -1.9934737367378314e-11, 1707435868228901775, 
0.0019763708114624023, 0.019911229610443115, -5.98336377018959e-11, 1707435868239075254, 
-0.023127615451812744, -0.007078886032104492, -9.285094385424308e-11, 1707435868249752609, 
0.005593776702880859, -0.008973479270935059, -1.0658383452903211e-10, 1707435868258809124, 
0.019937455654144287, -0.010816693305969238, -9.578897592796926e-11, 1707435868268822820, 
0.012756049633026123, 0.010741889476776123, -7.782654308735399e-11, 1707435868281081863, 
-0.024973511695861816, 0.010657012462615967, -2.242518269544965e-10, 1707435868288790950, 
-0.0017020106315612793, -0.011058688163757324, -1.6792782601445664e-10, 1707435868298848181, 
-0.012479066848754883, 0.008611500263214111, -1.6411460311749541e-10, 1707435868308820430, 
-0.0267789363861084, -0.011166393756866455, -1.5597113275495039e-10, 1707435868318794296, 
-0.008675158023834229, -0.009280204772949219, -1.3757143494749298e-10, 1707435868329475484, 
0.00031578540802001953, 0.004989147186279297, -1.4877991988607958e-10, 1707435868338845773, 
-0.006732046604156494, 0.02478623390197754, -1.3173015564642517e-10, 1707435868348815236, 
-0.013891279697418213, -0.0076708197593688965, -9.754768877020647e-11, 1707435868361416918, 
-0.006588637828826904, 0.003106236457824707, -1.942856149629541e-10, 1707435868368820499, 
0.014951169490814209, 0.004750192165374756, -1.5003938237873234e-10, 1707435868377859678, 
0.018697738647460938, -0.01843130588531494, -1.1824819228810134e-10, 1707435868388902870, 
0.0042244791984558105, -0.03473830223083496, -1.269737051802985e-10, 1707435868398823021, 
-0.006462574005126953, -0.009455263614654541, -1.1625565284589939e-10, 1707435868409227573, 
-0.020846784114837646, 0.004847049713134766, -1.1839985196993086e-10, 1707435868418841941, 
0.00259244441986084, 0.008521676063537598, -6.613249259975143e-06, 1707435868427855018, 
0.01512974500656128, -0.02562892436981201, -9.0185129773825e-11, 1707435868441920635, 
-0.01170039176940918, 0.00685042142868042, -1.087897566054369e-10, 1707435868448846174, 
-0.02063453197479248, 0.024787068367004395, -6.934792127266117e-11, 1707435868458929909, 
0.01716822385787964, 0.0140647292137146, -4.6106030086133877e-11, 1707435868468927296, 
0.01702260971069336, -0.0059209465980529785, -4.994455316303622e-11, 1707435868477861204, 
0.01709878444671631, -0.01295614242553711, -5.703595576338728e-11, 1707435868489162110, 
-0.02603548765182495, 0.00135040283203125, -4.278634485426951e-11, 1707435868499032706, 
0.033163487911224365, 0.019229471683502197, -6.138262621367187e-11, 1707435868509148911, 
-0.01523679494857788, -0.0040163397789001465, -1.011359025113105e-10, 1707435868528956149, 
-0.02417576313018799, -0.00761646032333374, -5.295057623713225e-11, 1707435868539265747, 
-0.0025675296783447266, -0.0004202127456665039, -3.4093187585803545e-11, 1707435868549150816, 
-0.0025330185890197754, 0.004942357540130615, -3.1679505917826786e-11, 1707435868559006779, 
-0.02936577796936035, 0.01571977138519287, -2.614605899632146e-11, 1707435868569498493, 
-0.011296749114990234, 0.028238117694854736, -3.731259554588536e-11, 1707435868579088492, 
-0.01655632257461548, 0.026358604431152344, -3.899401337748361e-11, 1707435868589227901, 
0.00864100456237793, 0.018990278244018555, -2.6432579978119444e-11, 1707435868601472074, 
0.046403706073760986, 0.0009522438049316406, -6.224700366727445e-11, 1707435868608996592, 
-0.012777328491210938, -0.020598948001861572, -4.693033599441614e-11, 1707435868617936483, 
0.01773780584335327, 0.01160585880279541, -3.950413766212603e-11, 1707435868628033543, 
-0.00027954578399658203, 0.0006555318832397461, -3.473743530292377e-11, 1707435868638965806, 
-0.018136560916900635, -0.015460371971130371, -3.285421492903568e-11, 1707435868649215299, 
0.014187276363372803, -0.010129153728485107, -4.4245346796720414e-11, 1707435868659359776, 
-0.007261872291564941, -0.01002436876296997, -2.929836068509323e-11, 1707435868669203530, 
-0.01799410581588745, -0.002886652946472168, -5.7849441532961277e-11, 1707435868688847229, 
-0.009005606174468994, -0.01550966501235962, -1.1286752321445809e-11, 1707435868698976429, 
-0.019657552242279053, 0.0025280117988586426, -2.064456129491051e-12, 1707435868709016202, 
-0.023111820220947266, 0.0007849931716918945, 7.545564286901698e-12, 1707435868718823260, 
0.005787551403045654, 0.007928609848022461, 3.901710204036861e-11, 1707435868739034334, 
0.002337038516998291, 0.011591434478759766, 2.9362241335884996e-11, 1707435868749050653, 
0.0006105303764343262, -0.017142772674560547, 2.2099598433359985e-11, 1707435868761744524, 
0.004239976406097412, -0.029698729515075684, 4.439673909124101e-11, 1707435868768809504, 
-0.020803868770599365, -0.02600044012069702, 5.83766182374192e-11, 1707435868777872401, 
-0.02793794870376587, 0.00808858871459961, 4.277314183070946e-11, 1707435868787856219, 
-0.008028149604797363, -0.009755373001098633, 4.946475063971595e-11, 1707435868797860194, 
0.03156876564025879, -0.013236701488494873, 3.2307124303517243e-11, 1707435868809896776, 
-0.013187825679779053, 0.0030974745750427246, 6.305480784102305e-11, 1707435868818843642, 
-0.02387213706970215, -0.013003885746002197, 3.251622954420807e-11, 1707435868827858423, 
0.004982948303222656, -0.018249154090881348, 2.3806955174985867e-11, 1707435868841177946, 
-0.012889504432678223, -0.00559312105178833, -6.513856579251383e-12, 1707435868848850956, 
-0.018143117427825928, 0.01605081558227539, -4.309057446361454e-12, 1707435868858943415, 
0.02856588363647461, 0.010627150535583496, 1.875657551419704e-11, 1707435868868955004, 
-0.010669469833374023, 0.023466527462005615, -2.9302411502118944e-11, 1707435868889660257, 
0.016223132610321045, 0.0017867088317871094, -1.7073209255907473e-12, 1707435868898850495, 
-0.012295126914978027, -0.00515139102935791, -6.029439768084362e-11, 1707435868907879239, 
-0.023126602172851562, -0.0017511248588562012, 4.306541081566156e-06, 1707435868921719605, 
-0.0247117280960083, -0.01953500509262085, 9.713857716729454e-06, 1707435868927855622, 
-0.01920408010482788, 0.00023436546325683594, -5.011659293987554e-11, 1707435868939127335, 
-0.017240047454833984, 0.00029146671295166016, -2.2478808441849116e-11, 1707435868949207940, 
-0.015259027481079102, 0.02008146047592163, -9.467217217783625e-11, 1707435868959081663, 
-0.03475832939147949, 0.01833951473236084, -9.223729362249808e-11, 1707435868969360401, 
-0.0004317164421081543, 0.009339749813079834, -9.819493541497927e-11, 1707435868978976654, 
-0.0002211928367614746, 0.011136412620544434, -4.7385290042769735e-11, 1707435868989131768, 
0.017796576023101807, 0.00199204683303833, -7.417788516257142e-11, 1707435869001443736, 
0.005409836769104004, -0.003338754177093506, -1.1938208023385512e-10, 1707435869008833133, 
-0.012404382228851318, -0.017691314220428467, -8.425714843018732e-11, 1707435869018917995, 
0.023567378520965576, -0.0159304141998291, -8.15633453083859e-11, 1707435869028959591, 
0.003940701484680176, 0.0003312826156616211, -7.728713960243053e-11, 1707435869039103619, 
-0.012212157249450684, 0.005617618560791016, -7.421773235986671e-11, 1707435869049212767, 
-0.001256704330444336, 0.005754709243774414, -8.263454754962293e-11, 1707435869057858505, 
-0.0030063986778259277, -0.008653104305267334, -6.803955664571104e-11, 1707435869067898414, 
0.002449333667755127, 0.0057114362716674805, -4.553572365943278e-11, 1707435869082034563, 
0.011450707912445068, 0.00925058126449585, -1.653997812933421e-10, 1707435869088991988, 
0.02047628164291382, 0.012855827808380127, -6.577259196862758e-11, 1707435869097880316, 
0.00788426399230957, 0.01098400354385376, -5.127386050404987e-11, 1707435869108984935, 
0.004334747791290283, 0.0038207173347473145, -5.612374675963831e-11, 1707435869118834967, 
0.00254666805267334, 0.005588054656982422, -5.1880201139851115e-11, 1707435869129215568, 
0.009714782238006592, -0.0016339421272277832, -1.0686803055222407e-10, 1707435869138908371, 
-0.0046343207359313965, 0.007340908050537109, 6.6384513671040075e-06, 1707435869147887065, 
0.02215021848678589, -0.02695554494857788, 4.412139708012956e-06, 1707435869161396294, 
0.0203285813331604, -0.03761786222457886, 9.214688031938045e-06, 1707435869167864725, 
-0.0013733506202697754, 0.014368951320648193, -8.907229952869286e-11, 1707435869178927271, 
0.0022911429405212402, 0.01994425058364868, 3.758567369733603e-11, 1707435869187875631, 
-0.01581341028213501, -0.0232924222946167, -9.781362872106561e-12, 1707435869198825542, 
-0.015738844871520996, -0.026699602603912354, -8.558511289732215e-11, 1707435869209843279, 
-0.015746891498565674, -0.023047268390655518, -5.627146105279939e-11, 1707435869218820211, 
-0.003141045570373535, 0.03089725971221924, -5.4146594451623586e-11, 1707435869227852075, 
-0.010292112827301025, 0.01833653450012207, -3.4905420966727195e-11, 1707435869241417795, 
0.004091024398803711, 0.014718592166900635, -7.0906462403149e-11, 1707435869247869158, 
0.018417537212371826, 0.01642554998397827, -4.4685984842742295e-11, 1707435869257873491, 
0.018444597721099854, 0.02004075050354004, -4.386962942732678e-11, 1707435869267887427, 
-0.008540570735931396, -0.00519329309463501, -8.137656237478949e-11, 1707435869277963183, 
0.00041031837463378906, -0.007044494152069092, -3.566795967946826e-11, 1707435869289636854, 
-0.004937112331390381, -0.005203604698181152, 4.076938384034354e-11, 1707435869297857051, 
0.0022200345993041992, 0.007310271263122559, -3.654175823279589e-12, 1707435869307859402, 
0.025511741638183594, -0.0035074353218078613, -3.475098072421267e-12, 1707435869321117237, 
-0.0015053153038024902, -0.017923355102539062, -7.073949437547682e-12, 1707435869328926290, 
0.0038457512855529785, 0.009016633033752441, -7.389375815270219e-12, 1707435869337880428, 
0.005716383457183838, -0.0015888810157775879, -6.757627447799405e-12, 1707435869348901415, 
0.037830889225006104, 0.001828908920288086, 2.309782754790516e-11, 1707435869357852679, 
0.01624906063079834, 0.014499962329864502, -9.720673287614373e-12, 1707435869369504493, 
-0.00546032190322876, 0.007197022438049316, -1.4434882386985948e-11, 1707435869377910128, 
-0.007383942604064941, -0.0018815398216247559, -1.272172085708116e-11, 1707435869387855712, 
0.026635825634002686, -0.02341616153717041, 6.814078113200409e-12, 1707435869400855582, 
0.00145643949508667, 0.009012818336486816, 3.2730252806549846e-11, 1707435869408841066, 
0.01018613576889038, 0.012383460998535156, 2.4170078160483616e-11, 1707435869417853205, 
0.0030233263969421387, -0.025128662586212158, 1.6153796273917827e-11, 1707435869428949159, 
0.02256697416305542, 0.003504812717437744, 2.9685803377768627e-11, 1707435869437854576, 
0.0063135623931884766, -0.01615321636199951, 9.020839131230515e-12, 1707435869449128776, 
-0.006407201290130615, -0.010766685009002686, 7.665389755060226e-12, 1707435869458953886, 
0.023965120315551758, -0.014322936534881592, -8.760435428116497e-12, 1707435869468915770, 
0.004092812538146973, -0.0016565322875976562, -1.0340224192429987e-12, 1707435869481710615, 
0.00034362077713012695, 0.009121298789978027, -1.2474409827419119e-12, 1707435869487873242, 
0.009200751781463623, -0.00877368450164795, -1.841038707583454e-13, 1707435869498941763, 
-0.019641578197479248, 0.009205937385559082, 8.098828236581266e-13, 1707435869508959724, 
0.01986873149871826, 0.020147502422332764, 5.607960082197823e-12, 1707435869517854612, 
0.0106850266456604, -0.006896674633026123, 6.921376980475021e-12, 1707435869529590194, 
-0.010959923267364502, -0.005072474479675293, 1.282845442251515e-11, 1707435869537927268, 
0.005054354667663574, 0.00922459363937378, 5.067633909161815e-12, 1707435869547887562, 
0.0031894445419311523, -0.0140610933303833, 4.659407597298842e-12, 1707435869561130844, 
0.006692826747894287, 0.02545177936553955, 2.7476091436717718e-11, 1707435869567858690, 
-0.01497793197631836, 0.012776196002960205, 2.002739277361419e-11, 1707435869577894755, 
-0.002445518970489502, 0.009169042110443115, 1.9299412196923645e-11, 1707435869588934581, 
0.006458759307861328, -0.005248129367828369, -5.839592657875435e-12, 1707435869597880742, 
0.006450057029724121, 0.021719276905059814, -1.8436858736902843e-11, 1707435869609149092, 
-0.009820520877838135, 0.005408525466918945, -5.6931373251003936e-12, 1707435869617856486, 
-0.015212595462799072, 0.025096476078033447, -2.1031522109942547e-11, 1707435869627894715, 
-0.006252467632293701, 0.017784297466278076, -3.3612283234989597e-12, 1707435869641134307, 
-0.004383206367492676, -0.00017112493515014648, -3.03157896619045e-11, 1707435869647854956, 
0.011710643768310547, -0.0021345019340515137, -3.319689092216734e-11, 1707435869658915018, 
-0.0045372843742370605, 0.015613436698913574, -5.936262614144439e-11, 1707435869667855284, 
0.01169651746749878, 0.0066620707511901855, -5.2874180376293156e-11, 1707435869677878890, 
-0.0009683966636657715, -0.011482596397399902, -6.245308175825531e-11, 1707435869689171702, 
0.0008290410041809082, -0.013302087783813477, -6.01426436835006e-11, 1707435869697855740, 
-0.011757314205169678, -0.01335066556930542, -5.096648591615661e-11, 1707435869707878306, 
-0.02068251371383667, -0.015115439891815186, -3.500594329536034e-11, 1707435869721786794, 
0.0044065117835998535, -0.0026558637619018555, -1.1303031056111683e-10, 1707435869728935528, 
-0.011660873889923096, 0.008195161819458008, -4.356707488495124e-11, 1707435869738947214, 
0.020602524280548096, 0.004483222961425781, -4.264946422535284e-11, 1707435869748940886, 
0.0008916258811950684, 0.020663738250732422, -5.5946951999780096e-11, 1707435869759138393, 
-0.036773622035980225, 0.020583510398864746, -6.64039887648333e-11, 1707435869769283923, 
0.01890164613723755, 0.006096243858337402, -6.582506061160005e-11, 1707435869778944545, 
0.02428334951400757, -0.001148819923400879, -6.322269353031888e-11, 1707435869788907827, 
-0.008046448230743408, -0.031700074672698975, -6.231326742727992e-11, 1707435869801178633, 
-0.0007955431938171387, -0.0010870099067687988, -8.919671098954665e-11, 1707435869807894861, 
0.011671721935272217, 0.009532749652862549, -6.723448422515633e-11, 1707435869818950986, 
0.011701762676239014, 0.007789671421051025, -9.023772197474502e-11, 1707435869829048502, 
-0.017128825187683105, 0.005822300910949707, -9.020115201660351e-11, 1707435869838943982, 
0.0008996129035949707, -0.0012944340705871582, -8.203354610326516e-11, 1707435869849623601, 
0.0026224851608276367, 0.003959953784942627, -7.604137497620532e-11, 1707435869858954390, 
-0.02781844139099121, -0.0013778209686279297, -8.10232868845239e-11, 1707435869868945544, 
0.015272855758666992, 0.01469886302947998, -6.415527640091296e-11, 1707435869881149459, 
-0.009900510311126709, 0.02890157699584961, -1.1069387796501663e-10, 1707435869889087275, 
0.022435009479522705, 0.0090714693069458, -8.74238384758476e-11, 1707435869899001920, 
0.03672879934310913, 0.0233004093170166, -9.105297604811612e-11, 1707435869909032764, 
0.013307332992553711, -0.0019469857215881348, -1.1351312709479364e-10, 1707435869919078555, 
0.015104174613952637, -0.0108756422996521, -1.356100472997514e-10, 1707435869929490450, 
0.01663273572921753, -0.0021963119506835938, -1.6031957903344942e-10, 1707435869939066726, 
0.009426474571228027, -0.014679133892059326, -1.6686784287081185e-10, 1707435869949022937, 
0.003809988498687744, -0.01845341920852661, -1.661297504747145e-10, 1707435869961166201, 
0.0073986053466796875, -0.005724787712097168, -2.435054455936782e-10, 1707435869968938120, 
0.005386769771575928, -0.0058672428131103516, -2.552683225117778e-10, 1707435869978946536, 
-0.0269927978515625, -0.0040381550788879395, -2.3214068551625706e-10, 1707435869988934326, 
-0.01450878381729126, -0.029202044010162354, -1.7658225684274056e-10, 1707435869998904975, 
0.0035024285316467285, 0.0033042430877685547, -1.7128472474905195e-10, 1707435870009225217, 
-0.010937213897705078, 0.02299743890762329, -6.882782275941168e-06, 1707435870017885477, 
-0.0073310136795043945, 0.01941704750061035, -1.5570747409478433e-10, 1707435870028924788, 
0.01058107614517212, -0.012949109077453613, -1.5175621777313543e-10, 1707435870042056301, 
-0.01632082462310791, -0.007496178150177002, -3.332840012169716e-10, 1707435870047895022, 
0.032158493995666504, -0.002050936222076416, -1.758913615196e-10, 1707435870059008232, 
0.04453688859939575, -0.005747020244598389, -2.0491298766286937e-10, 1707435870068962484, 
-0.02012711763381958, -0.0074179768562316895, -1.771753949548207e-10, 1707435870078914507, 
-0.0023635029792785645, 0.015342950820922852, -0.0, 1707435870089220279, 
-0.007814943790435791, -0.00789421796798706, 0.00042007076503385087, 1707435870097875558, 
-0.006159424781799316, -0.006219983100891113, 0.0007337025214852645, 1707435870107867808, 
-0.06709617376327515, 0.027978181838989258, 0.0013602636474504479, 1707435870121144781, 
-0.1497214436531067, 0.0262107253074646, 0.009795226925470179, 1707435870127893124, 
-0.06349486112594604, 0.06510317325592041, 0.01859325813983987, 1707435870138911165, 
0.2066320776939392, 0.1826818585395813, 0.058418336957169754, 1707435870148921424, 
0.3058977723121643, 0.7350366711616516, 0.1587441665100445, 1707435870157894199, 
-0.4609365463256836, 1.0058176517486572, 0.23292439950171726, 1707435870169638065, 
-0.5683782696723938, 0.7309083342552185, 0.5071095672418129, 1707435870177881960, 
-0.20164036750793457, 0.5380932092666626, 0.48717733284835396, 1707435870188902414, 
0.2691231369972229, 0.464410662651062, 0.48492589430787814, 1707435870201506997, 
0.3555559515953064, 0.48791760206222534, 1.0036936585540843, 1707435870207894311, 
-0.22754043340682983, 0.2479357123374939, 0.6445729252786528, 1707435870217896247, 
-0.5796663761138916, -0.19488567113876343, 0.5756906870949349, 1707435870228984167, 
-0.2552390694618225, -0.3201112747192383, 0.6418809222292652, 1707435870238912722, 
0.10939431190490723, -0.35914695262908936, 0.6092424596330829, 1707435870249242421, 
0.15565985441207886, -0.5073270797729492, 0.6418805865994662, 1707435870258822173, 
-0.03705298900604248, -0.5775043368339539, 0.5986788687450598, 1707435870268896099, 
-0.12605243921279907, -0.3705974221229553, 0.4833613998768063, 1707435870281202975, 
-0.03212094306945801, 0.023494958877563477, 0.7602226568926581, 1707435870288849665, 
0.06661486625671387, 0.1857476830482483, 0.6300724205422403, 1707435870297870321, 
0.07114344835281372, 0.25348538160324097, 0.5008415951876426, 1707435870308919726, 
0.008494198322296143, 0.31185388565063477, 0.6026633718328951, 1707435870317862462, 
0.05682164430618286, 0.38875412940979004, 0.4556151951216765, 1707435870329350507, 
0.09095394611358643, 0.3483234643936157, 0.5234769392620169, 1707435870339032061, 
0.007651150226593018, 0.059612274169921875, 0.5577271624326903, 1707435870347879248, 
-0.05472421646118164, -0.18137115240097046, 0.37744488145926547, 1707435870360868502, 
-0.06873917579650879, -0.16236954927444458, 0.6963086145496855, 1707435870367884188, 
-0.06605422496795654, -0.27377068996429443, 0.44704656928349873, 1707435870378910709, 
-0.020494401454925537, -0.4162678122520447, 0.49160075375161816, 1707435870388992573, 
-0.1244666576385498, -0.31771451234817505, 0.5044152214673931, 1707435870398922648, 
-0.15882283449172974, 0.0015667080879211426, 0.49342257676595414, 1707435870409194263, 
-0.05302298069000244, 0.1371777057647705, 0.5817490363101406, 1707435870417888110, 
0.0031426548957824707, 0.10794532299041748, 0.45185958886932887, 1707435870428927378, 
-0.026862800121307373, 0.1672322154045105, 0.3990218839778214, 1707435870441281006, 
-0.059293925762176514, 0.30179405212402344, 0.6397896805045475, 1707435870448901828, 
0.036092936992645264, 0.25086766481399536, 0.5420121163997829, 1707435870457896989, 
-0.01714557409286499, 0.02490556240081787, 0.44591658319943894, 1707435870468950390, 
-0.09178441762924194, -0.07852554321289062, 0.5617417855938199, 1707435870477895000, 
0.056217730045318604, -0.17517918348312378, 0.41334163489310305, 1707435870490246632, 
0.17720896005630493, -0.16774576902389526, 0.5962140530280146, 1707435870498845425, 
0.11059439182281494, -0.1594831943511963, 0.5707584228783934, 1707435870507855800, 
-0.10142689943313599, 0.014767646789550781, 0.38858912223935926, 1707435870521186220, 
-0.09473687410354614, 0.21847528219223022, 0.7832876631410237, 1707435870527880869, 
0.00666046142578125, 0.27503257989883423, 0.4835399121235148, 1707435870538915390, 
0.037779271602630615, 0.10608702898025513, 0.5361953167716448, 1707435870548926780, 
0.14369505643844604, -0.020522594451904297, 0.5943638448612787, 1707435870557859502, 
0.15332025289535522, -0.11159944534301758, 0.4557872048348202, 1707435870569192558, 
-0.086040198802948, -0.13265568017959595, 0.5125364406338503, 1707435870578907378, 
-0.27535587549209595, -0.18451642990112305, 0.4821000254939639, 1707435870588914567, 
-0.11378389596939087, -0.16791564226150513, 0.3777949018717402, 1707435870601524019, 
0.2084130048751831, -0.06894409656524658, 0.6390916457611973, 1707435870608909838, 
0.20386600494384766, 0.026002824306488037, 0.46783887262484275, 1707435870618944205, 
-0.01967918872833252, 0.08123159408569336, 0.4696354063242403, 1707435870628961130, 
-0.026909053325653076, 0.18202298879623413, 0.47992139397112643, 1707435870638920721, 
0.18422693014144897, 0.2213841676712036, 0.4614279441116625, 1707435870649510054, 
0.13641422986984253, 0.2754613161087036, 0.5938960073422914, 1707435870657891202, 
-0.2564774751663208, 0.11021065711975098, 0.45753583783925883, 1707435870668913497, 
-0.29158031940460205, -0.049388587474823, 0.3979346993788882, 1707435870681653918, 
0.01841557025909424, -0.007162630558013916, 0.813810790644502, 1707435870687893209, 
0.10950994491577148, -0.055168092250823975, 0.46333301807480537, 1707435870698907785, 
-0.11817538738250732, -0.16058319807052612, 0.512031423464125, 1707435870708952432, 
-0.3739696741104126, -0.18355143070220947, 0.5197152781709119, 1707435870718847077, 
-0.1287769079208374, -0.1273798942565918, 0.4891556325133106, 1707435870729241434, 
0.29288893938064575, -0.05873680114746094, 0.5806335794712378, 1707435870737869544, 
0.2723647356033325, 0.06621062755584717, 0.4987347840784991, 1707435870747881766, 
-0.051437199115753174, 0.10734003782272339, 0.37034555940426467, 1707435870761529292, 
-0.1933498978614807, 0.069438636302948, 0.7960772039855264, 1707435870767878974, 
-0.02675187587738037, 0.04112565517425537, 0.5009435417899819, 1707435870777879533, 
0.207838237285614, 0.0828019380569458, 0.4528838005679643, 1707435870788927789, 
0.13726413249969482, 0.1359958052635193, 0.5681315935527879, 1707435870797894330, 
-0.023285388946533203, 0.022428452968597412, 0.4345998489107282, 1707435870809780571, 
-0.05416947603225708, -0.06793588399887085, 0.5622028136870214, 1707435870818909626, 
-0.019375205039978027, -0.03751266002655029, 0.4991728527687355, 1707435870828977542, 
-0.04608190059661865, -0.025672316551208496, 0.4071228654241272, 1707435870841222831, 
-0.005055129528045654, -0.0030012130737304688, 0.6521551760147102, 1707435870848901233, 
-0.12403875589370728, -0.03565758466720581, 0.5014227290185934, 1707435870858932053, 
-0.1455780267715454, -0.08426207304000854, 0.497001296216873, 1707435870868968403, 
-0.06757521629333496, -0.06486779451370239, 0.4948130875607248, 1707435870878930607, 
0.04552268981933594, 0.010851919651031494, 0.47680090995741686, 1707435870889247026, 
0.0901104211807251, 0.07540875673294067, 0.5769122469544498, 1707435870897883585, 
0.007231473922729492, 0.02647566795349121, 0.4568994609743776, 1707435870908895667, 
-0.11249607801437378, -0.00037485361099243164, 0.4080274684423156, 1707435870921213729, 
-0.04793912172317505, 0.028209686279296875, 0.6552762827114418, 1707435870928932869, 
0.10792946815490723, 0.18539023399353027, 0.5172263004246817, 1707435870938939080, 
0.01576000452041626, 0.15774637460708618, 0.5307318419845424, 1707435870948982436, 
-0.15067744255065918, 0.017199277877807617, 0.5489111201341642, 1707435870958849206, 
-0.15321820974349976, -0.04636180400848389, 0.5220268427288063, 1707435870969243987, 
0.027947962284088135, 0.016317367553710938, 0.5593389905052237, 1707435870978908167, 
0.15718477964401245, 0.0004921555519104004, 0.5999043097789792, 1707435870987882889, 
0.0774763822555542, -0.056057870388031006, 0.39083705107659183, 1707435871001618416, 
-0.10273128747940063, -0.10322600603103638, 0.8582174166695261, 1707435871007871016, 
-0.16169273853302002, -0.13593518733978271, 0.484949044411737, 1707435871018915763, 
-0.041477739810943604, -0.036935389041900635, 0.5247100306890843, 1707435871028935911, 
0.02289646863937378, -0.11039233207702637, 0.5134959675606174, 1707435871038931823, 
-0.00880885124206543, -0.16409236192703247, 0.46903584879791527, 1707435871049566701, 
-0.026723802089691162, -0.09173280000686646, 0.5181761277779054, 1707435871058903400, 
-0.023126602172851562, 0.009177803993225098, 0.46803392656860276, 1707435871068920467, 
0.09202045202255249, 0.06473320722579956, 0.37704243523396214, 1707435871081195756, 
0.058327317237854004, 0.0485692024230957, 0.6970038868671374, 1707435871087892568, 
-0.07056796550750732, 0.07857608795166016, 0.427539890037395, 1707435871098933955, 
-0.06817340850830078, 0.13562995195388794, 0.47076548552740155, 1707435871108961523, 
0.1628967523574829, 0.08514702320098877, 0.5331862802910637, 1707435871117874843, 
0.24845653772354126, 0.09748142957687378, 0.4125662015257568, 1707435871129691149, 
-0.0069138407707214355, 0.13664650917053223, 0.539121232263768, 1707435871138971026, 
-0.2226390242576599, 0.01727241277694702, 0.5034261677585143, 1707435871148932214, 
-0.015888214111328125, -0.1784374713897705, 0.38904436682805965, 1707435871161562213, 
0.15673917531967163, -0.13609206676483154, 0.6533245033458264, 1707435871168968309, 
0.14941346645355225, -0.03127336502075195, 0.4846162084184937, 1707435871178973595, 
-0.1965402364730835, -0.02069556713104248, 0.4836593082713664, 1707435871189042920, 
-0.41307371854782104, -0.061363160610198975, 0.4968875031611543, 1707435871198908232, 
-0.09498876333236694, -0.024592041969299316, 0.47773100378923244, 1707435871209274551, 
0.16298961639404297, 0.23925107717514038, 0.5118805441597851, 1707435871219162970, 
-0.10749804973602295, 0.10118049383163452, 0.5211526897255694, 1707435871229152927, 
-0.14131522178649902, 0.05446594953536987, 0.42845169499572894, 1707435871241517327, 
0.040827810764312744, 0.1407482624053955, 0.708372607361898, 1707435871248969212, 
0.15312135219573975, 0.13757318258285522, 0.5293047202340765, 1707435871259018700, 
0.07596749067306519, 0.029781341552734375, 0.5404059345400829, 1707435871269040542, 
-0.09155535697937012, -0.1176767349243164, 0.5471795937399304, 1707435871279075140, 
-0.1403435468673706, -0.22408664226531982, 0.5397092187782029, 1707435871289248743, 
-0.11410272121429443, -0.14624440670013428, 0.5606592985153217, 1707435871298942465, 
-0.06239914894104004, -0.09700942039489746, 0.5315365471374923, 1707435871308955921, 
-0.02749764919281006, -0.10924798250198364, 0.41114038850787815, 1707435871321667103, 
-0.10099673271179199, -0.051288604736328125, 0.7025490604528226, 1707435871328960260, 
-0.06692492961883545, 0.030169188976287842, 0.502210362582171, 1707435871338998617, 
0.1264030933380127, 0.08037358522415161, 0.5003334384705118, 1707435871348956932, 
0.12426525354385376, 0.08794724941253662, 0.49439632335508876, 1707435871358980702, 
0.028780877590179443, 0.0737040638923645, 0.47608113826146314, 1707435871369401296, 
0.0893663763999939, 0.08045017719268799, 0.5242131629393113, 1707435871378895909, 
0.21113234758377075, 0.04625260829925537, 0.49656820728676293, 1707435871388907404, 
0.19042623043060303, 0.06048882007598877, 0.39917197006768945, 1707435871401401752, 
0.017908751964569092, 0.052377283573150635, 0.7700649888190999, 1707435871407887391, 
0.0001595616340637207, -0.03450357913970947, 0.4519093020582103, 1707435871418910322, 
0.0025719404220581055, -0.062384188175201416, 0.49145021393131005, 1707435871428961549, 
0.013156116008758545, -0.06133759021759033, 0.5472108759428171, 1707435871437890368, 
-0.012501537799835205, -0.11161881685256958, 0.41025229604858193, 1707435871449711724, 
-0.07553231716156006, -0.10952425003051758, 0.5213559162844673, 1707435871458911336, 
-0.008816242218017578, -0.07417863607406616, 0.46814720875581967, 1707435871468946223, 
-0.024564743041992188, 0.06322801113128662, 0.3771566861801096, 1707435871481283380, 
-0.14315319061279297, 0.13876932859420776, 0.6095449861591113, 1707435871488981549, 
-0.15714210271835327, 0.08787047863006592, 0.48063709091348444, 1707435871499014853, 
-0.07637667655944824, 0.052413761615753174, 0.480931682905649, 1707435871509163719, 
0.035733163356781006, 0.08086913824081421, 0.49886664162254624, 1707435871519077115, 
-0.04778873920440674, 0.13361740112304688, 0.5122663928236733, 1707435871538967916, 
-0.1332802176475525, -0.03950858116149902, 0.5201975382695816, 1707435871548967608, 
-0.02269822359085083, -0.06621438264846802, 0.41899972089024407, 1707435871561516469, 
0.07855761051177979, 0.014550745487213135, 0.709298173143821, 1707435871568959557, 
0.03139519691467285, -0.00800168514251709, 0.5208889928805802, 1707435871579203165, 
-0.09735387563705444, -0.13450181484222412, 0.54389445203265, 1707435871589025816, 
-0.19832688570022583, -0.12133628129959106, 0.5319573425180247, 1707435871598972364, 
-0.14461469650268555, -0.028158187866210938, 0.4852219162690921, 1707435871609627023, 
0.09511160850524902, -0.06574636697769165, 0.5376434858102175, 1707435871618914890, 
0.12533479928970337, -0.08241069316864014, 0.4828345425682164, 1707435871628945860, 
0.07805997133255005, -0.01629495620727539, 0.37214943019038615, 1707435871641759408, 
0.10556960105895996, -0.025345683097839355, 0.6605490799379048, 1707435871648921548, 
0.14248985052108765, -0.039149582386016846, 0.471226610387901, 1707435871658938416, 
0.15912389755249023, 0.07153630256652832, 0.46948605380699693, 1707435871668981243, 
0.08800578117370605, 0.18224376440048218, 0.4715378273912508, 1707435871678966842, 
0.10495811700820923, 0.12073469161987305, 0.4391394201101769, 1707435871689691046, 
0.13919764757156372, 0.17011290788650513, 0.5140545381747902, 1707435871698937309, 
-0.045321762561798096, 0.18884390592575073, 0.4779026939722518, 1707435871709251206, 
-0.21524685621261597, 0.019951343536376953, 0.4129392945945471, 1707435871721589536, 
-0.07693898677825928, -0.24245107173919678, 0.6860556996559541, 1707435871729001598, 
0.08075278997421265, -0.22029685974121094, 0.48465358782149137, 1707435871739294261, 
0.06321972608566284, -0.10154324769973755, 0.5024743360116539, 1707435871749006473, 
-0.1675710678100586, -0.04204845428466797, 0.4819300491675566, 1707435871758955295, 
-0.35874074697494507, -0.01816326379776001, 0.44091688201780527, 1707435871769721447, 
-0.08439230918884277, 0.0030112266540527344, 0.5176658074719133, 1707435871778965220, 
0.33983248472213745, 0.18057948350906372, 0.4931331985143333, 1707435871788964325, 
0.1504160761833191, 0.27716928720474243, 0.41183413659615015, 1707435871801327521, 
-0.21297025680541992, 0.1649472713470459, 0.6793378503274442, 1707435871808966945, 
-0.22842401266098022, 0.09399014711380005, 0.523918659715212, 1707435871818955974, 
-0.11558198928833008, 0.07235133647918701, 0.5250508529031832, 1707435871829024446, 
0.10835772752761841, 0.07715505361557007, 0.5431882579393604, 1707435871838935971, 
0.08910584449768066, -0.083901047706604, 0.5230223196951519, 1707435871849362464, 
0.03153586387634277, -0.24830371141433716, 0.5720292840013279, 1707435871858914028, 
-0.07272326946258545, -0.1572226881980896, 0.5347232632767763, 1707435871869061816, 
-0.16146224737167358, -0.03170573711395264, 0.4315495296477235, 1707435871881411934, 
-0.0321195125579834, -0.08644014596939087, 0.6921232147389235, 1707435871888935927, 
0.1193380355834961, -0.08311855792999268, 0.504515561626827, 1707435871899042278, 
0.1873224973678589, 0.004928290843963623, 0.49722560110249026, 1707435871909095617, 
0.1511460542678833, 0.10978943109512329, 0.4980360609527474, 1707435871918985023, 
-0.20826834440231323, 0.02222919464111328, 0.4922699317109715, 1707435871938987953, 
-0.0035541653633117676, 0.05530577898025513, 0.49407689892989326, 1707435871948997333, 
0.2527618408203125, 0.04357200860977173, 0.3922456634996077, 1707435871961696195, 
0.11793738603591919, 0.02132391929626465, 0.6787791274280023, 1707435871968967793, 
-0.016530871391296387, -0.037287890911102295, 0.4891317782542742, 1707435871978967159, 
-0.18953561782836914, -0.08507412672042847, 0.4806952586799132, 1707435871989020184, 
-0.2379787564277649, -0.06766760349273682, 0.4841699474618224, 1707435871998947010, 
0.009837090969085693, -0.046170175075531006, 0.4380239800738467, 1707435872009809483, 
0.12546056509017944, -0.12234389781951904, 0.5137036926538865, 1707435872018936879, 
0.047713398933410645, -0.08463352918624878, 0.4604852689549981, 1707435872028967094, 
-0.05419093370437622, -0.01641744375228882, 0.37086947380815755, 1707435872041362722, 
-0.07986092567443848, 0.13435524702072144, 0.6142377886271391, 1707435872048960639, 
-0.12136942148208618, 0.15728527307510376, 0.4778432124376053, 1707435872058963741, 
0.09700065851211548, 0.09919840097427368, 0.48462848688828536, 1707435872069048429, 
0.3661169409751892, 0.11464881896972656, 0.5031287705391242, 1707435872078920055, 
0.1846652626991272, 0.2136518955230713, 0.4493156247733857, 1707435872090092795, 
-0.22646480798721313, 0.09636235237121582, 0.565786111687784, 1707435872098974484, 
-0.3204525113105774, 0.0204085111618042, 0.4916836836755129, 1707435872109184447, 
-0.15902793407440186, -0.016813337802886963, 0.41743326640164813, 1707435872121278388, 
0.20188093185424805, -0.04490619897842407, 0.666567034297748, 1707435872128959308, 
0.12467104196548462, -0.07052850723266602, 0.5117592057825806, 1707435872139125062, 
-0.11221343278884888, -0.12788188457489014, 0.5266839912617147, 1707435872149076166, 
-0.1417064666748047, -0.11142408847808838, 0.5134679988396138, 1707435872159204796, 
0.06575900316238403, 0.013660013675689697, 0.502530746307732, 1707435872169610464, 
-0.02311086654663086, 0.11388266086578369, 0.5703757712554565, 1707435872178994051, 
-0.10562729835510254, 0.15999311208724976, 0.5466920336825656, 1707435872188974035, 
0.06063663959503174, 0.07500052452087402, 0.4483856112933748, 1707435872201238386, 
0.12224632501602173, 0.13024663925170898, 0.7103644116031325, 1707435872208992419, 
0.029906392097473145, 0.20904004573822021, 0.5478019816515326, 1707435872218999222, 
-0.06746208667755127, 0.0035550594329833984, 0.5376116177428573, 1707435872229086014, 
-0.02281343936920166, -0.1048135757446289, 0.5298731956588624, 1707435872239259051, 
-0.0773804783821106, -0.06523066759109497, 0.5602847226657365, 1707435872248878072, 
-0.14973562955856323, -0.09632915258407593, 0.5322476781757807, 1707435872259043997, 
-0.08518195152282715, -0.1321389079093933, 0.5412120617656971, 1707435872269051088, 
0.004746913909912109, -0.07582598924636841, 0.5368216746851102, 1707435872288961036, 
0.0762854814529419, 0.0363924503326416, 0.5251672271688408, 1707435872298948544, 
0.025041162967681885, 0.0500028133392334, 0.5152592684020718, 1707435872309025733, 
-0.012827694416046143, 0.05425029993057251, 0.52014557397952, 1707435872318982229, 
-0.04420071840286255, 0.1888788342475891, 0.4713841559949102, 1707435872329949402, 
-0.07813483476638794, 0.2010543942451477, 0.5712941044857346, 1707435872338945687, 
0.030377209186553955, 0.024673283100128174, 0.5092421716755055, 1707435872348950876, 
0.14636576175689697, -0.05510103702545166, 0.39567154850826336, 1707435872361689777, 
0.0037797093391418457, -0.028148651123046875, 0.6899224803057431, 1707435872368965155, 
-0.1349756121635437, -0.12307149171829224, 0.4934856318034092, 1707435872378996681, 
-0.0790334939956665, -0.26967859268188477, 0.4811734309294723, 1707435872389096142, 
0.11050987243652344, -0.13195925951004028, 0.49093147025709827, 1707435872398984140, 
0.01938241720199585, 0.07802015542984009, 0.45886498166992223, 1707435872409726619, 
-0.12588655948638916, 0.05037546157836914, 0.5426004988846524, 1707435872418949355, 
0.026407837867736816, 0.004867136478424072, 0.5051201580281934, 1707435872429003277, 
0.17792320251464844, 0.132154643535614, 0.4216318278709374, 1707435872441282936, 
0.12752443552017212, 0.23728561401367188, 0.6788595473934508, 1707435872448964857, 
-0.02657681703567505, 0.1858435869216919, 0.5114048442104459, 1707435872459031490, 
-0.08884340524673462, -0.006157934665679932, 0.505619623127225, 1707435872469076185, 
-0.05803805589675903, 0.011720716953277588, 0.5124388902187107, 1707435872479007762, 
-0.06433624029159546, 0.08690446615219116, 0.4966956210628865, 1707435872489296299, 
-0.08323270082473755, -0.06316781044006348, 0.526241107950957, 1707435872498964549, 
-0.13812172412872314, -0.2661347985267639, 0.49452707651073313, 1707435872509079923, 
-0.2369212508201599, -0.29959195852279663, 0.4002645443408094, 1707435872521323302, 
-0.08465862274169922, -0.004817843437194824, 0.6295927200904168, 1707435872529047934, 
-0.1034887433052063, 0.16004186868667603, 0.4919509840644847, 1707435872539064709, 
0.23299819231033325, 0.003374636173248291, 0.49500639588578316, 1707435872549312647, 
0.23563575744628906, 0.23986661434173584, 0.5281423558237641, 1707435872559226211, 
-0.04903066158294678, 0.24920719861984253, 0.5857358035049742, 1707435872568349296, 
-0.04962068796157837, 0.032880187034606934, 0.49480230901468325, 1707435872579056078, 
0.04315626621246338, -0.012359917163848877, 0.5121096732944702, 1707435872589203967, 
-0.031376540660858154, 0.1384577751159668, 0.40980233733527505, 1707435872602003174, 
-0.07975423336029053, 0.09594577550888062, 0.7635750286795864, 1707435872609026043, 
0.12017011642456055, -0.13943707942962646, 0.5965006355213263, 1707435872618149149, 
0.1735650897026062, -0.1698133945465088, 0.5041902374464243, 1707435872629155238, 
0.04013103246688843, 0.1364695429801941, 0.5862848370323969, 1707435872639067073, 
-0.026498854160308838, 0.2776950001716614, 0.5886215190995834, 1707435872649452512, 
0.20488637685775757, 0.06902235746383667, 0.6706424984545001, 1707435872658970204, 
0.16947990655899048, 0.1137896180152893, 0.6714055545045976, 1707435872669006126, 
-0.08120238780975342, 0.31668734550476074, 0.5712055022069304, 1707435872681390095, 
-0.18898308277130127, 0.29081082344055176, 0.9439682877368177, 1707435872688940784, 
-0.1904504895210266, 0.11006909608840942, 0.7033497083652873, 1707435872698983156, 
-0.2008068561553955, -0.022312641143798828, 0.6903454133838078, 1707435872709075263, 
-0.08239638805389404, -0.18573516607284546, 0.6955380771891191, 1707435872718968927, 
0.0011460185050964355, -0.42540043592453003, 0.6011444166106148, 1707435872730140405, 
0.10186946392059326, -0.3239656090736389, 0.7367493675146677, 1707435872738942486, 
0.028740286827087402, -0.13860011100769043, 0.626460884055876, 1707435872748945153, 
-0.034332990646362305, -0.06112879514694214, 0.48631280836611407, 1707435872761654763, 
0.048478901386260986, 0.056006550788879395, 0.8513884281716556, 1707435872768939884, 
0.13551956415176392, 0.24234694242477417, 0.6194839285952366, 1707435872778987324, 
0.2756505608558655, 0.26623696088790894, 0.6232198709156119, 1707435872789009201, 
0.07695478200912476, 0.25951409339904785, 0.6231123347657218, 1707435872798991283, 
-0.04953646659851074, 0.18987822532653809, 0.5917197861746609, 1707435872809306568, 
-0.040147483348846436, 0.028773963451385498, 0.6180100353135718, 1707435872818970383, 
0.07588285207748413, -0.2109655737876892, 0.5809270726376863, 1707435872829012063, 
0.119026780128479, -0.3137792944908142, 0.4538997286851674, 1707435872841640343, 
0.137176513671875, -0.2689414620399475, 0.7788218788549772, 1707435872848967009, 
0.044682204723358154, -0.1776585578918457, 0.5745692669068324, 1707435872859013781, 
0.11505246162414551, -0.0006222724914550781, 0.5901181203032633, 1707435872869043436, 
0.1422429084777832, 0.2968316674232483, 0.6226975542097558, 1707435872879012196, 
-0.16640037298202515, 0.5521523356437683, 0.6369559579274385, 1707435872889354507, 
0.03792309761047363, 0.6535249352455139, 0.7247464391124371, 1707435872898953650, 
0.046518146991729736, 0.5231286883354187, 0.7116607955964017, 1707435872909135220, 
0.059862613677978516, 0.24288111925125122, 0.5771505459712039, 1707435872922020950, 
0.10053050518035889, 0.06621897220611572, 1.0783339374700078, 1707435872928963477, 
-0.18930858373641968, -0.07295936346054077, 0.7357058518776853, 1707435872939134614, 
-0.338312566280365, -0.28241389989852905, 0.7567980633641868, 1707435872948988448, 
-0.28563588857650757, -0.26905709505081177, 0.7562753380676382, 1707435872958958367, 
-0.09574079513549805, -0.192626953125, 0.7305655958345756, 1707435872969432763, 
0.013716280460357666, 0.0689307451248169, 0.8077808538300637, 1707435872978965151, 
-0.08815652132034302, 0.0707656741142273, 0.76469665032429, 1707435872988991411, 
-0.16199523210525513, 0.022740304470062256, 0.6138542033782373, 1707435873001350910, 
-0.0994691252708435, 0.1558895707130432, 0.9784485706655797, 1707435873008949808, 
0.03714466094970703, 0.19442439079284668, 0.727639965862465, 1707435873018977769, 
0.2774938941001892, 0.1160893440246582, 0.7115822024297782, 1707435873029068109, 
0.10675549507141113, -0.05320936441421509, 0.7208672705719933, 1707435873039015711, 
-0.19266676902770996, -0.035717785358428955, 0.6671325609430915, 1707435873049762249, 
-0.21273589134216309, 0.0634649395942688, 0.7802323500094575, 1707435873059013605, 
-0.15648114681243896, -0.04139035940170288, 0.7287279277432028, 1707435873069000382, 
-0.04119729995727539, -0.25265175104141235, 0.5916126160891833, 1707435873081311745, 
0.019893348217010498, -0.11545532941818237, 0.9407010360729956, 1707435873088974818, 
0.05344271659851074, 0.012806117534637451, 0.701625628738962, 1707435873099027697, 
0.1388622522354126, 0.1509721279144287, 0.6927716902232116, 1707435873109060688, 
0.07526266574859619, 0.08895260095596313, 0.7027167176724672, 1707435873118998126, 
-0.05713897943496704, 0.22352874279022217, 0.684235431375888, 1707435873129430814, 
0.23619604110717773, 0.4028269648551941, 0.7744119663532067, 1707435873138966583, 
0.16707724332809448, 0.30348455905914307, 0.7569009540820999, 1707435873148998738, 
-0.00016742944717407227, -0.05165034532546997, 0.624228235350828, 1707435873161313750, 
-0.014597773551940918, -0.061872899532318115, 0.9988957886723546, 1707435873168956875, 
0.12792515754699707, 0.08074760437011719, 0.7539777211297182, 1707435873178982776, 
0.06700539588928223, 0.14906412363052368, 0.7559619315412845, 1707435873189021277, 
-0.02463388442993164, -0.10297030210494995, 0.7726658946321497, 1707435873199016002, 
0.06969130039215088, -0.02972733974456787, 0.7680940896103178, 1707435873209334522, 
0.08660382032394409, 0.2418847680091858, 0.842895824243483, 1707435873218958946, 
-0.23306351900100708, 0.05484861135482788, 0.8072821247352368, 1707435873229011870, 
-0.26678454875946045, -0.07794982194900513, 0.6129951240454535, 1707435873242055508, 
-0.2852669358253479, 0.03768455982208252, 1.1286286822661997, 1707435873248974827, 
0.019985318183898926, 0.22881865501403809, 0.7667696254425765, 1707435873259046528, 
0.0403323769569397, 0.17221027612686157, 0.7697483445688862, 1707435873269071849, 
0.022194504737854004, -0.11301851272583008, 0.7830216692671862, 1707435873279038651, 
-0.0859794020652771, -0.05878812074661255, 0.7442057011477936, 1707435873289672241, 
-0.42527681589126587, 0.0457613468170166, 0.859445859595208, 1707435873298994794, 
-0.5036758780479431, -0.06696617603302002, 0.8062293054375965, 1707435873309063506, 
-0.16601991653442383, -0.1156885027885437, 0.662546003916668, 1707435873321414845, 
0.12215149402618408, -0.037820637226104736, 1.0666733702623319, 1707435873329035090, 
0.20998817682266235, 0.10092425346374512, 0.7985038251410815, 1707435873339014163, 
0.14885365962982178, 0.23939192295074463, 0.7766925776289569, 1707435873349031961, 
-0.07810789346694946, 0.051929593086242676, 0.7454538236277082, 1707435873359274619, 
-0.17570972442626953, 0.0651407241821289, 0.7013320067454878, 1707435873370109481, 
-0.12737244367599487, 0.08783453702926636, 0.8538588081181387, 1707435873379021658, 
-0.043376803398132324, -0.05826091766357422, 0.7609563987936687, 1707435873388979667, 
0.13168960809707642, -0.18993836641311646, 0.5885799234453689, 1707435873401749952, 
0.09681576490402222, -0.14316147565841675, 1.0350424477516273, 1707435873408969776, 
0.14964181184768677, 0.08985781669616699, 0.7522838815941545, 1707435873418999643, 
-0.03006511926651001, 0.20547330379486084, 0.7681317173465125, 1707435873429023715, 
-0.104625403881073, 0.10663282871246338, 0.7735633999595168, 1707435873439244467, 
0.009419560432434082, 0.15035879611968994, 0.7944846628700335, 1707435873449403511, 
-0.07494854927062988, 0.035372138023376465, 0.8392182852725981, 1707435873458975231, 
-0.1116214394569397, 0.02718663215637207, 0.7765962388232956, 1707435873469016159, 
0.07335078716278076, 0.15730148553848267, 0.6173586296016211, 1707435873481374802, 
0.06766432523727417, 0.09591341018676758, 1.0065493338991032, 1707435873488986900, 
0.054787278175354004, 0.052856624126434326, 0.7842198365702385, 1707435873499052347, 
0.16484731435775757, 0.008320629596710205, 0.7994642082350717, 1707435873509059852, 
0.1354987621307373, -0.09081029891967773, 0.8034099325705012, 1707435873519031103, 
-0.01539677381515503, -0.09194999933242798, 0.7601723532818699, 1707435873529512487, 
-0.356623113155365, -0.08886182308197021, 0.8208503294257447, 1707435873539146333, 
-0.3272194266319275, 0.04230731725692749, 0.7914826393277654, 1707435873549031377, 
-0.047125279903411865, 0.03649693727493286, 0.5793282766309833, 1707435873562285869, 
0.310172438621521, 0.004689514636993408, 1.1114164974935523, 1707435873569005177, 
0.23331141471862793, 0.08761173486709595, 0.7371709929073467, 1707435873579022838, 
-0.21085339784622192, 0.17491722106933594, 0.7346054523487776, 1707435873589081366, 
-0.4457626938819885, 0.1193917989730835, 0.7534047919386694, 1707435873599044137, 
-0.4869835376739502, -0.010087788105010986, 0.7379316537179307, 1707435873609348152, 
-0.05052071809768677, -0.12223690748214722, 0.7876222041446667, 1707435873618969250, 
0.3279482126235962, -0.047105252742767334, 0.7448644612171623, 1707435873628984895, 
0.4655957818031311, 0.03767818212509155, 0.5953333984747906, 1707435873641380843, 
0.0340193510055542, 0.14425504207611084, 0.9795454499259488, 1707435873648962558, 
-0.40999525785446167, 0.15771722793579102, 0.7529431095139876, 1707435873659033747, 
-0.40433448553085327, 0.1945713758468628, 0.7855534778123079, 1707435873668968507, 
-0.04596072435379028, 0.09183657169342041, 0.7919142588740002, 1707435873679034301, 
0.0582461953163147, -0.011816859245300293, 0.7399523386992582, 1707435873689809048, 
-0.04361766576766968, -0.01734757423400879, 0.8589261672873802, 1707435873698992087, 
0.11697715520858765, 0.06902402639389038, 0.7851828163746511, 1707435873709045474, 
0.17626380920410156, 0.172441303730011, 0.6478676605614109, 1707435873721366134, 
-0.08877217769622803, 0.06162232160568237, 1.062663196582092, 1707435873729022372, 
-0.16709065437316895, 0.06405013799667358, 0.8326045484883076, 1707435873739044875, 
-0.1345934271812439, 0.10800015926361084, 0.8400748793828707, 1707435873749080193, 
-0.026996314525604248, 0.019563913345336914, 0.8447305270158997, 1707435873759018866, 
-0.05931943655014038, -0.13472449779510498, 0.7967361647127328, 1707435873769355383, 
-0.026535332202911377, -0.1463230848312378, 0.83398608605795, 1707435873779024523, 
0.009713232517242432, 0.020401835441589355, 0.7880833325425829, 1707435873789169803, 
-0.07347965240478516, 0.11704117059707642, 0.6616539704902527, 1707435873801374647, 
-0.14069843292236328, 0.043637752532958984, 1.0789029292508197, 1707435873809002519, 
0.01950061321258545, 0.05111682415008545, 0.8236884593483339, 1707435873819044904, 
-0.1175311803817749, 0.09424722194671631, 0.8181150504652942, 1707435873829044406, 
-0.2523983120918274, -0.03144806623458862, 0.7988944167970404, 1707435873839083511, 
-0.11662322282791138, -0.10299885272979736, 0.738888255024665, 1707435873849715808, 
0.013913929462432861, -0.05390596389770508, 0.826878987721696, 1707435873859094285, 
0.24809283018112183, 0.07615792751312256, 0.7718924178734912, 1707435873869085191, 
0.08237230777740479, -0.018261253833770752, 0.5828313805916765, 1707435873882171459, 
-0.057476162910461426, -0.013005077838897705, 1.055023223530062, 1707435873889240484, 
-0.07276099920272827, -0.07122933864593506, 0.7263440414503828, 1707435873899189850, 
-0.0538327693939209, -0.28005754947662354, 0.6810879652314645, 1707435873909140102, 
0.23414570093154907, -0.48625415563583374, 0.6056479192308014, 1707435873919076726, 
0.4352823495864868, -0.4929291605949402, 0.4884664725498906, 1707435873929454732, 
0.21198219060897827, -0.41392290592193604, 0.44037998658461575, 1707435873939067030, 
-0.16065210103988647, -0.28864747285842896, 0.36141525049406115, 1707435873949342582, 
-0.5050753951072693, -0.0679483413696289, 0.2862498462559573, 1707435873961667069, 
-0.29098618030548096, 0.02041304111480713, 0.4683104981860396, 1707435873969060018, 
-0.21071535348892212, 0.1094103455543518, 0.34350553621821645, 1707435873979097432, 
-0.07289588451385498, 0.36312198638916016, 0.34340844475335797, 1707435873989169261, 
-0.0682535171508789, 0.44668787717819214, 0.35254266688381763, 1707435873999053983, 
-0.13310402631759644, 0.3021242022514343, 0.36139869127953234, 1707435874008856608, 
-0.15723103284835815, 0.07806187868118286, 0.35954365695505064, 1707435874019006230, 
-0.015020430088043213, -0.02209484577178955, 0.3798145202296713, 1707435874029036960, 
0.13148194551467896, 0.014935851097106934, 0.32363359169095995, 1707435874041572360, 
0.1334517002105713, -0.09157419204711914, 0.5865194108293597, 1707435874048973461, 
0.3466755151748657, -0.07550054788589478, 0.46186857135912834, 1707435874059040626, 
0.254943311214447, -0.04846113920211792, 0.48671132384174115, 1707435874069083916, 
0.14158844947814941, -0.031188547611236572, 0.49594478289504806, 1707435874079023253, 
0.11674720048904419, 0.14305824041366577, 0.46277005141915534, 1707435874089384539, 
0.02677363157272339, 0.2955048680305481, 0.48337498417057, 1707435874098986148, 
-0.08738774061203003, 0.30801868438720703, 0.45024413995483564, 1707435874109008870, 
0.018637001514434814, 0.2604026198387146, 0.35234375114020516, 1707435874121488757, 
0.03852564096450806, 0.041331589221954346, 0.5765771664325722, 1707435874129026037, 
-0.19410860538482666, -0.11301296949386597, 0.4347759915931247, 1707435874139063403, 
-0.16421252489089966, -0.18262171745300293, 0.4419889057643945, 1707435874149078028, 
0.0638766884803772, -0.2407277226448059, 0.4520149939183651, 1707435874159012138, 
0.12538856267929077, -0.20198965072631836, 0.44040671245939383, 1707435874169488670, 
-0.06365978717803955, -0.10176819562911987, 0.49455508594178593, 1707435874179056421, 
0.034646809101104736, 0.11008810997009277, 0.47500845932900143, 1707435874189074107, 
-0.006582021713256836, 0.28119105100631714, 0.3674453151385135, 1707435874202086095, 
-0.17122459411621094, 0.3098178505897522, 0.6921125869987111, 1707435874209013154, 
-0.034471988677978516, 0.32576024532318115, 0.4749396708794821, 1707435874219053115, 
0.04977458715438843, 0.19299471378326416, 0.471634992335294, 1707435874229084815, 
-0.08987486362457275, -0.04411005973815918, 0.4673553529299601, 1707435874239039520, 
-0.023176133632659912, -0.2566453814506531, 0.4382535252948187, 1707435874249417105, 
0.17097151279449463, -0.19631052017211914, 0.46295158027693833, 1707435874259012655, 
-0.0010726451873779297, -0.07618570327758789, 0.4431250487759715, 1707435874269024494, 
-0.15803325176239014, -0.059915006160736084, 0.36874526788357476, 1707435874281423235, 
-0.06605035066604614, -0.022048890590667725, 0.6210398806921497, 1707435874288977955, 
0.0317385196685791, 0.25456053018569946, 0.48403871732219195, 1707435874299029537, 
0.0687870979309082, 0.3188258409500122, 0.49550657436665585, 1707435874309021351, 
0.11887329816818237, 0.1885938048362732, 0.4955697009097965, 1707435874318971228, 
-0.008570313453674316, 0.16326028108596802, 0.44158755038306763, 1707435874330006906, 
-0.2906230688095093, 0.10321879386901855, 0.5316299366470655, 1707435874339053407, 
-0.22986197471618652, -0.0644194483757019, 0.4690528900211205, 1707435874349036641, 
0.18674272298812866, -0.21034181118011475, 0.3583939573566552, 1707435874361707979, 
0.28394919633865356, -0.20401155948638916, 0.6193976955155548, 1707435874368992777, 
0.0740923285484314, -0.0659644603729248, 0.4575218213066801, 1707435874379053437, 
0.0003250241279602051, 0.03129690885543823, 0.473427592706206, 1707435874389080890, 
-0.193062424659729, 0.13766008615493774, 0.4941654185014642, 1707435874399044924, 
-0.18388605117797852, 0.2146216630935669, 0.4683036064489491, 1707435874409729520, 
-0.011593341827392578, 0.197296142578125, 0.5326604660174802, 1707435874419043965, 
0.11910295486450195, 0.217579185962677, 0.4854498195100021, 1707435874429076145, 
-0.13484042882919312, 0.059003472328186035, 0.3778588511665407, 1707435874441680944, 
-0.13827264308929443, -0.0634644627571106, 0.6343056646764342, 1707435874449020549, 
0.05739390850067139, -0.11902141571044922, 0.45823001582400086, 1707435874459065018, 
0.1583428978919983, -0.1327630877494812, 0.4613189210163631, 1707435874469111601, 
0.178566575050354, -0.09827399253845215, 0.4738666165623669, 1707435874479040713, 
-0.004477560520172119, -0.08218467235565186, 0.45855543854782105, 1707435874489509206, 
-0.20242828130722046, 0.08786910772323608, 0.5141527999978744, 1707435874499013211, 
-0.1982743740081787, 0.19635742902755737, 0.48477896230368694, 1707435874509059638, 
-0.036591947078704834, 0.2695428133010864, 0.4840846872102493, 1707435874529013131, 
-0.05739837884902954, 0.05346977710723877, 0.47802435432465695, 1707435874539043533, 
-0.009893596172332764, -0.10350227355957031, 0.47009211118659033, 1707435874549073042, 
0.07817059755325317, -0.19067931175231934, 0.46354808327283686, 1707435874559028373, 
0.12027990818023682, -0.229894757270813, 0.41540394413719833, 1707435874569901027, 
0.12202185392379761, -0.15372520685195923, 0.491084472626021, 1707435874579053202, 
0.05304455757141113, -0.00322878360748291, 0.45496612468067527, 1707435874589079462, 
-0.14186179637908936, 0.11646372079849243, 0.38186509511250377, 1707435874601388755, 
-0.06927841901779175, 0.21498054265975952, 0.6284295919262246, 1707435874609051831, 
0.07096052169799805, 0.3118593096733093, 0.4927304201227668, 1707435874619034126, 
-0.06806403398513794, 0.33127909898757935, 0.4945539641887446, 1707435874629120021, 
-0.030605435371398926, 0.19388800859451294, 0.497340718083583, 1707435874639094274, 
0.08471381664276123, 0.010140538215637207, 0.4989316237011692, 1707435874648866120, 
0.07735955715179443, -0.10311233997344971, 0.4691989693218648, 1707435874659064466, 
0.10828256607055664, -0.16653239727020264, 0.47204974967760566, 1707435874669076844, 
0.17862170934677124, -0.17822974920272827, 0.37377508031542683, 1707435874681653973, 
-0.020133495330810547, -0.14618319272994995, 0.6400828127923144, 1707435874689060483, 
-0.18716049194335938, -0.020305097103118896, 0.48099249073869704, 1707435874699074847, 
-0.12844789028167725, 0.1428505778312683, 0.48857622817630986, 1707435874709074794, 
-0.1205601692199707, 0.2010156512260437, 0.4967949873760739, 1707435874719050278, 
0.012930750846862793, 0.2167137861251831, 0.49964115016191996, 1707435874739069820, 
0.018720030784606934, 0.0639420747756958, 0.5026012037871788, 1707435874749046768, 
-0.082608163356781, -0.0032039284706115723, 0.40095915902374973, 1707435874761478076, 
-0.023563265800476074, -0.04142504930496216, 0.649993556182686, 1707435874769032637, 
0.033831000328063965, -0.08590006828308105, 0.4884926032291271, 1707435874779049672, 
-0.02762782573699951, -0.13140207529067993, 0.4835509193999764, 1707435874789121620, 
0.03697079420089722, -0.0488433837890625, 0.4884743219373711, 1707435874799044581, 
0.0019866228103637695, 0.08307141065597534, 0.44745009374166667, 1707435874809894366, 
-0.06223374605178833, 0.12851160764694214, 0.5336624591484048, 1707435874819070673, 
0.0007597208023071289, 0.1628580093383789, 0.4929768668284044, 1707435874829090881, 
0.0005791783332824707, 0.11437070369720459, 0.42373258031104905, 1707435874840887257, 
-0.06727015972137451, 0.019121825695037842, 0.5878725574002158, 1707435874849326700, 
0.05797302722930908, -0.04826396703720093, 0.5018214148153315, 1707435874859096551, 
0.10807573795318604, -0.07210564613342285, 0.4847642851840862, 1707435874869110939, 
-0.029521048069000244, -0.08225733041763306, 0.48549349485240384, 1707435874879076531, 
-0.020536065101623535, -0.08916115760803223, 0.4619058296528944, 1707435874889527028, 
0.010119259357452393, 0.006823062896728516, 0.5098257358801318, 1707435874899048452, 
-0.057097792625427246, 0.1593712568283081, 0.4888730525692298, 1707435874909087073, 
0.06264001131057739, 0.20574820041656494, 0.49614976871352173, 1707435874929085541, 
-0.08779680728912354, 0.13952219486236572, 0.5004804038829102, 1707435874939092979, 
-0.09845173358917236, 0.008141756057739258, 0.4894646427091151, 1707435874949152349, 
0.053387224674224854, -0.04935115575790405, 0.48605272225121865, 1707435874959040618, 
0.10021579265594482, -0.15253037214279175, 0.4183161721200473, 1707435874970452985, 
-0.020304322242736816, -0.09041452407836914, 0.5575175489953321, 1707435874979063806, 
-0.028878867626190186, -0.10669100284576416, 0.48811432844124036, 1707435874989019001, 
-0.13251632452011108, 0.1416548490524292, 0.4918939579873769, 1707435875009317565, 
0.04257935285568237, 0.250821053981781, 0.5249478701227268, 1707435875019075526, 
-0.007869958877563477, 0.2241145372390747, 0.5207342999676481, 1707435875039259380, 
0.0375400185585022, 0.09263467788696289, 0.5090700699796467, 1707435875049470521, 
0.07214939594268799, 0.005989015102386475, 0.5274816544898503, 1707435875059085797, 
0.030820190906524658, -0.11388516426086426, 0.48820452863349395, 1707435875069248044, 
0.05115783214569092, -0.10760211944580078, 0.38350180910634757, 1707435875082092754, 
0.023204147815704346, -0.08354377746582031, 0.7093048062895007, 1707435875089053508, 
-0.11777949333190918, -0.07646256685256958, 0.4986002267746797, 1707435875099090189, 
-0.033274173736572266, 0.030842065811157227, 0.5077147204410187, 1707435875109073008, 
-0.00020623207092285156, 0.11749565601348877, 0.5177766393641948, 1707435875119047501, 
-0.04848366975784302, 0.22370493412017822, 0.5018312449015448, 1707435875129498912, 
-0.10556560754776001, 0.12747681140899658, 0.5502794883262067, 1707435875139067745, 
-0.08761215209960938, -0.008366584777832031, 0.5178579030731341, 1707435875149134496, 
-0.04077136516571045, -0.015705585479736328, 0.39199555735505487, 1707435875162165114, 
0.07089954614639282, -0.03872555494308472, 0.6977530904761908, 1707435875169318245, 
0.10861492156982422, -0.061597228050231934, 0.5055601458644049, 1707435875179131748, 
-0.07404559850692749, -0.03767204284667969, 0.4934777128760629, 1707435875189131410, 
-0.13417094945907593, -0.04351937770843506, 0.4947217781828365, 1707435875199072069, 
-0.029912829399108887, 0.020379960536956787, 0.4467464643607831, 1707435875210069287, 
-0.11452668905258179, 0.21608763933181763, 0.5352073341481673, 1707435875219308204, 
-0.18304848670959473, 0.074241042137146, 0.5000343216223919, 1707435875229257330, 
-0.09059256315231323, -0.030291974544525146, 0.40124654681200295, 1707435875241608721, 
0.19418483972549438, -0.09087496995925903, 0.6378004406320543, 1707435875249182728, 
0.3041760325431824, -0.1347050666809082, 0.456682812321208, 1707435875259517756, 
0.1056290864944458, -0.08631670475006104, 0.4880128160931033, 1707435875269136806, 
-0.07267630100250244, 0.09766650199890137, 0.47591938760483526, 1707435875279148335, 
-0.199091374874115, 0.15017354488372803, 0.4524162705532192, 1707435875289933311, 
-0.07390046119689941, 0.26580655574798584, 0.5484751451267856, 1707435875299106113, 
0.040174007415771484, 0.2829585075378418, 0.5153526642928302, 1707435875309180405, 
-0.005898118019104004, 0.029130220413208008, 0.5263789714767322, 1707435875329131209, 
-0.09341377019882202, -0.03652346134185791, 0.5102642405154069, 1707435875339145803, 
-0.031907618045806885, -0.11409008502960205, 0.4871613728632875, 1707435875349241841, 
0.039941251277923584, -0.1457827091217041, 0.48601714936782014, 1707435875359075285, 
0.006986856460571289, -0.06853026151657104, 0.4477243588240996, 1707435875369749763, 
-0.06935399770736694, 0.007624804973602295, 0.5277826599846622, 1707435875379058023, 
-0.02913600206375122, 0.1271381974220276, 0.5021349479974369, 1707435875389204705, 
-0.08222001791000366, 0.21613788604736328, 0.4109966313759598, 1707435875402040963, 
-0.003039717674255371, 0.20881295204162598, 0.7690856510238676, 1707435875409035699, 
0.03650367259979248, 0.1659834384918213, 0.5393081707328818, 1707435875419097709, 
-0.09325820207595825, 0.06082338094711304, 0.5351115485628717, 1707435875429127479, 
0.008655190467834473, -0.06253814697265625, 0.5169147062845013, 1707435875439180431, 
0.21186161041259766, -0.07732117176055908, 0.4862547102338209, 1707435875449431236, 
0.022233009338378906, -0.019779622554779053, 0.5044670842125639, 1707435875459053325, 
-0.053903400897979736, -0.05600231885910034, 0.47338063734367203, 1707435875469246978, 
-0.06321108341217041, 0.06564134359359741, 0.49298386025753704, 1707435875489298677, 
-0.02683722972869873, 0.1267961859703064, 0.5241339918277799, 1707435875499090889, 
-0.1289912462234497, 0.15402930974960327, 0.525696353505991, 1707435875509097201, 
-0.16521203517913818, 0.11447316408157349, 0.5312973870607436, 1707435875519140070, 
-0.028269946575164795, 0.038431763648986816, 0.4821719798299003, 1707435875530107132, 
0.2097143530845642, -0.001127779483795166, 0.5607972082918038, 1707435875539250128, 
0.1920682191848755, -0.006655514240264893, 0.5025264917835792, 1707435875549134004, 
-0.05219823122024536, 0.07926762104034424, 0.49403235150851316, 1707435875569076805, 
-0.165249764919281, 0.16914349794387817, 0.49918148077708235, 1707435875579283772, 
0.021771907806396484, 0.10154896974563599, 0.5268874727798594, 1707435875589127102, 
0.08185124397277832, 0.07763314247131348, 0.5264312156138973, 1707435875599080641, 
-0.12377703189849854, 0.018663406372070312, 0.522796681317503, 1707435875619072927, 
-0.05881786346435547, -0.03864973783493042, 0.5119803474344923, 1707435875629064902, 
-0.07097262144088745, -0.09556543827056885, 0.3979838879261006, 1707435875641811232, 
0.15316110849380493, -0.011837899684906006, 0.6925458579033885, 1707435875649084927, 
0.11100149154663086, -0.006232917308807373, 0.4982383791356261, 1707435875659354404, 
-0.0635148286819458, 0.05593663454055786, 0.5315367706584792, 1707435875669183733, 
-0.06483244895935059, 0.14821618795394897, 0.5339079853468132, 1707435875679086948, 
-0.07929390668869019, 0.24089401960372925, 0.5365537747398895, 1707435875689029627, 
-0.10510283708572388, 0.21822553873062134, 0.5343877355896165, 1707435875699061579, 
-0.07659834623336792, 0.0733264684677124, 0.5309611531069599, 1707435875709120347, 
-0.02975255250930786, -0.11549985408782959, 0.5156717335549944, 1707435875729140233, 
0.10701298713684082, -0.06651347875595093, 0.5013016613721676, 1707435875739122827, 
0.05528336763381958, -0.061072587966918945, 0.4973618640359614, 1707435875749194207, 
-0.057695209980010986, -0.0778656005859375, 0.49892877544661624, 1707435875759310416, 
-0.016412436962127686, 0.017945408821105957, 0.4972525553826954, 1707435875769557339, 
-0.013022184371948242, 0.16437804698944092, 0.5404541036939196, 1707435875779084196, 
-0.0665276050567627, 0.20567333698272705, 0.5194148651045172, 1707435875789068427, 
-0.13987761735916138, 0.14909648895263672, 0.3947782498887203, 1707435875802177032, 
-0.10454201698303223, 0.07275623083114624, 0.7388900222732439, 1707435875809093253, 
-0.08201205730438232, -0.011617779731750488, 0.499448997343164, 1707435875819090682, 
0.13395607471466064, -0.07475149631500244, 0.48365368018987626, 1707435875829182671, 
0.09850496053695679, -0.0823027491569519, 0.48997588817077664, 1707435875839089823, 
0.03871631622314453, -0.05348330736160278, 0.4704130724615065, 1707435875849522891, 
0.05832099914550781, 0.05595022439956665, 0.5249374791307944, 1707435875859066002, 
0.027836501598358154, 0.18525803089141846, 0.5112502594476857, 1707435875869135779, 
0.002187490463256836, 0.23092156648635864, 0.5339056630310569, 1707435875889092753, 
-0.11572659015655518, 0.16542822122573853, 0.5450212865109514, 1707435875899098961, 
-0.07178390026092529, 0.06949388980865479, 0.540886150424878, 1707435875909141447, 
0.13693881034851074, 0.08064073324203491, 0.5323484428817056, 1707435875919242650, 
0.05956536531448364, -0.011981964111328125, 0.547167627017556, 1707435875939234905, 
0.035701632499694824, -0.06176435947418213, 0.55996282851152, 1707435875949101741, 
0.04201650619506836, 0.06175684928894043, 0.43031961863239865, 1707435875961932594, 
0.03967183828353882, 0.1069953441619873, 0.772707891812441, 1707435875969129363, 
-0.02235502004623413, 0.21966087818145752, 0.5398872646480568, 1707435875979576149, 
-0.15866661071777344, 0.14029449224472046, 0.5912273596336451, 1707435875989180694, 
-0.17832839488983154, -0.027737319469451904, 0.5719280801097687, 1707435875999088615, 
-0.05710446834564209, -0.06087249517440796, 0.5049870855997728, 1707435876010237581, 
0.00807255506515503, -0.025621891021728516, 0.6261886384211505, 1707435876019117917, 
0.13011986017227173, -0.0519099235534668, 0.5510881623942928, 1707435876029111304, 
-0.05900931358337402, -0.09391230344772339, 0.44517155303059425, 1707435876041467874, 
-0.24353379011154175, 0.03332120180130005, 0.715659441932774, 1707435876049095736, 
-0.20522278547286987, 0.24476659297943115, 0.5418568529656328, 1707435876059110542, 
-0.08603549003601074, 0.2077960968017578, 0.5301562445059711, 1707435876069165143, 
0.028133392333984375, 0.02210986614227295, 0.5252133799015202, 1707435876079060039, 
0.07710683345794678, -0.10251235961914062, 0.4707133271013378, 1707435876089849986, 
0.053812384605407715, -0.04667764902114868, 0.5390640075637435, 1707435876099112388, 
0.10257059335708618, 0.06894457340240479, 0.4996770111689243, 1707435876109071263, 
-0.23884320259094238, -0.05377161502838135, 0.524142913558464, 1707435876129113379, 
-0.11545193195343018, 0.07817405462265015, 0.5447320605621537, 1707435876139164627, 
0.21716231107711792, 0.17322850227355957, 0.5512286155169572, 1707435876149127151, 
0.12564700841903687, 0.2001035213470459, 0.5291062836323969, 1707435876159484906, 
-0.10356533527374268, 0.12385028600692749, 0.5521381001400701, 1707435876179129224, 
-0.2092573046684265, 0.08718270063400269, 0.5348761851317763, 1707435876189144687, 
0.1718662977218628, -0.06120502948760986, 0.42204812777433504, 1707435876201775483, 
0.4212746024131775, -0.11172622442245483, 0.7400079013622105, 1707435876209109446, 
0.11102908849716187, -0.01274871826171875, 0.553885835985588, 1707435876219110144, 
-0.19955390691757202, 0.08458280563354492, 0.553689180072137, 1707435876229191246, 
-0.17139476537704468, 0.13660818338394165, 0.5600233977587813, 1707435876239128737, 
-0.1414504051208496, 0.1380915641784668, 0.4943861490139726, 1707435876250289018, 
-0.06820046901702881, 0.1278395652770996, 0.6179152360537976, 1707435876259097162, 
-0.045605361461639404, 0.024241507053375244, 0.5231432692269445, 1707435876269306377, 
0.03669494390487671, -0.006491661071777344, 0.41873898753548644, 1707435876281966543, 
0.1536327600479126, -0.012197732925415039, 0.7331468127747729, 1707435876289304667, 
-0.012383639812469482, -0.02113354206085205, 0.5553571349323683, 1707435876299259009, 
-0.1238221526145935, -0.05009889602661133, 0.5664041256907689, 1707435876309151800, 
-0.04722851514816284, 0.008046925067901611, 0.5631642550313497, 1707435876319063617, 
-0.014868497848510742, 0.16669857501983643, 0.5243303253187859, 1707435876329546184, 
-0.09586209058761597, 0.25460517406463623, 0.5638989798093523, 1707435876339089393, 
-0.11747163534164429, 0.11020994186401367, 0.5281437486399698, 1707435876349120682, 
-0.11567646265029907, -0.035598814487457275, 0.44920371220837724, 1707435876360857896, 
-0.03153270483016968, -0.0070326924324035645, 0.6335146297657976, 1707435876369102353, 
0.1014409065246582, -0.04718279838562012, 0.5120630838520499, 1707435876379230415, 
0.016283929347991943, -0.17192578315734863, 0.49701962638440716, 1707435876389525683, 
-0.03526115417480469, -0.17104995250701904, 0.525139779746195, 1707435876399106899, 
-0.0752023458480835, -0.012978971004486084, 0.47306714924436044, 1707435876409504619, 
-0.09666997194290161, 0.19759505987167358, 0.5012912663279062, 1707435876419123216, 
-0.2527531385421753, 0.18065106868743896, 0.4700627925580308, 1707435876429142301, 
-0.33967334032058716, 0.01372295618057251, 0.3432457493111319, 1707435876442227358, 
-0.5882819890975952, -0.19627350568771362, 0.5840615077930666, 1707435876449099849, 
-0.46514594554901123, -0.36393916606903076, 0.3300762804690914, 1707435876459140711, 
-0.08645451068878174, -0.38688236474990845, 0.2680650918454399, 1707435876469107816, 
-0.15883463621139526, -0.271340012550354, 0.22292483695944154, 1707435876479122103, 
-0.3996835947036743, -0.17783117294311523, 0.18777213827537176, 1707435876489530009, 
-0.5791040658950806, -0.2327176332473755, 0.17603879974843173, 1707435876499172310, 
-0.5464637875556946, -0.22282564640045166, 0.134550275362145, 1707435876509249499, 
0.01588892936706543, 0.009629130363464355, 0.0818516088461745, 1707435876529177587, 
-0.25291115045547485, 0.0741153359413147, 0.034892824609267216, 1707435876539194483, 
-0.26547008752822876, -0.09707444906234741, 0.0021664156972081568, 1707435876549813907, 
-0.0015978813171386719, -0.05497044324874878, -0.030521849830117787, 1707435876559400430, 
0.08061879873275757, -0.03497976064682007, -0.04878376417634596, 1707435876569908010, 
0.0004985332489013672, -0.08908921480178833, -0.06308393244277077, 1707435876579385757, 
-0.05587822198867798, -0.09791630506515503, -0.06061473252597481, 1707435876589216175, 
-0.005840122699737549, 0.016655325889587402, -0.04482791091817492, 1707435876601478048, 
0.1112520694732666, 0.06868314743041992, -0.06720390344338166, 1707435876609157907, 
0.1329272985458374, 0.08086937665939331, -0.0492707802104261, 1707435876619210811, 
0.053617119789123535, 0.14165186882019043, -0.042417583951458324, 1707435876629253694, 
-0.022361338138580322, 0.1469275951385498, -0.03421339335505402, 1707435876639361607, 
0.09078043699264526, 0.09528672695159912, -0.023807272966795457, 1707435876649841801, 
0.17673838138580322, -0.025371015071868896, -0.014156181896289801, 1707435876659151227, 
0.060485661029815674, -0.07339328527450562, -0.003003378965426997, 1707435876669113917, 
-0.0074620842933654785, -0.030132174491882324, 0.004439330850379579, 1707435876681654232, 
-0.014470458030700684, -0.019865214824676514, 0.012454432406748062, 1707435876689105779, 
-0.06205892562866211, -0.02885812520980835, 0.009279817580370293, 1707435876699151525, 
-0.05791085958480835, 0.07173514366149902, 0.007663236886273591, 1707435876709208515, 
-0.033075928688049316, 0.07504189014434814, 0.005619385242775885, 1707435876719072989, 
-0.045964062213897705, 0.03743267059326172, 0.001707849859586032, 1707435876729612958, 
-0.03715699911117554, -0.02314174175262451, -0.004330340299117457, 1707435876739069008, 
0.027072668075561523, -0.03574967384338379, -0.00941428850822725, 1707435876749097748, 
0.10261368751525879, 0.0024240612983703613, -0.009652466582031251, 1707435876762213588, 
0.019910454750061035, 0.013155162334442139, -0.015315896459919171, 1707435876769070737, 
-0.01946347951889038, 0.009669363498687744, -0.0030025388959693464, 1707435876779095699, 
-0.0030499696731567383, 0.022086262702941895, 0.0060672834144740615, 1707435876789145608, 
0.02069908380508423, 0.014792084693908691, 0.01202477346067106, 1707435876799108841, 
-0.009556591510772705, 0.03816103935241699, 0.009404573243340056, 1707435876809547258, 
-0.043591201305389404, 0.054370105266571045, 0.004702065699826619, 1707435876819092487, 
-0.04237961769104004, 0.02730470895767212, 0.0012430588643881294, 1707435876829305792, 
-0.04567241668701172, 0.034541964530944824, -0.0020080797545000014, 1707435876841623980, 
-0.004479348659515381, -0.017332017421722412, -0.007585173797561498, 1707435876849128401, 
0.05788689851760864, -0.028220951557159424, -0.007302004085482937, 1707435876859135944, 
-0.003473520278930664, 0.022229492664337158, -0.006206595437424715, 1707435876869181101, 
0.044768571853637695, 0.040340423583984375, -0.000879494091221061, 1707435876879143291, 
0.2671774625778198, 0.08540600538253784, 0.012045703417318665, 1707435876889960094, 
0.6271631121635437, 0.13422435522079468, 0.05113564028919683, 1707435876899093921, 
0.9640243649482727, 0.5011517405509949, 0.11717757488916428, 1707435876909147827, 
0.9044479131698608, 0.7240862846374512, 0.19892405942708843, 1707435876920503684, 
0.2929285168647766, 0.5189344882965088, 0.39213044417401416, 1707435876929100568, 
-0.05173581838607788, 0.23465293645858765, 0.40907580330981724, 1707435876939098922, 
0.36548978090286255, 0.22937148809432983, 0.4318413362906093, 1707435876949106138, 
1.0539822578430176, 0.423084020614624, 0.43738617847803857, 1707435876959083817, 
0.6775234341621399, 0.46894538402557373, 0.42015182384786254, 1707435876969785036, 
-0.04515421390533447, 0.3072603940963745, 0.5140889583332692, 1707435876979091046, 
-0.11125397682189941, -0.06707179546356201, 0.5114833781958449, 1707435876989092053, 
0.3484600782394409, -0.22998332977294922, 0.44120475136794685, 1707435877001494221, 
1.0717419385910034, -0.008063793182373047, 0.7527891327399315, 1707435877009078399, 
1.1433242559432983, -0.1765652298927307, 0.5704500356419534, 1707435877019136443, 
0.6136724948883057, -0.1826627254486084, 0.5668569086116684, 1707435877029321439, 
0.00847858190536499, 0.11140263080596924, 0.6142517087973642, 1707435877039148309, 
0.04116368293762207, 0.6691006422042847, 0.6208999633207085, 1707435877049560472, 
0.17545229196548462, 0.5711765289306641, 0.7279086209674239, 1707435877059103930, 
0.3527600169181824, 0.23101484775543213, 0.741756247269293, 1707435877069139797, 
0.550133466720581, 0.41568344831466675, 0.6138050286214507, 1707435877081950160, 
0.21394938230514526, 0.5389240384101868, 1.114399561283484, 1707435877089117555, 
0.0237959623336792, 0.3407464623451233, 0.8009953161358914, 1707435877099144615, 
-0.28667283058166504, 0.07396411895751953, 0.8148827657669043, 1707435877109133114, 
-0.4651082754135132, -0.22032052278518677, 0.8272830461582084, 1707435877119094372, 
-0.24488669633865356, 0.004998326301574707, 0.7917939103458941, 1707435877129501943, 
-0.03981262445449829, 0.14792031049728394, 0.8433278025708557, 1707435877139108651, 
-0.021187782287597656, -0.06239062547683716, 0.791005185247022, 1707435877149133106, 
-0.3073054552078247, -0.28358763456344604, 0.6301383605540939, 1707435877161538373, 
-0.42091041803359985, -0.29308342933654785, 1.0097383956183639, 1707435877169090665, 
-0.149852454662323, 0.0532686710357666, 0.7325357724773827, 1707435877179106608, 
0.09605652093887329, 0.05085563659667969, 0.68365717449455, 1707435877189287399, 
0.12910056114196777, -0.09512859582901001, 0.6883909047008872, 1707435877199088481, 
-0.09886753559112549, 0.0023914575576782227, 0.5968612284767154, 1707435877210352790, 
-0.18490350246429443, 0.18820935487747192, 0.7722826959147412, 1707435877219086701, 
-0.28322404623031616, 0.048196256160736084, 0.664847007737684, 1707435877229143859, 
-0.12077206373214722, -0.03683197498321533, 0.5676845687360847, 1707435877240527542, 
0.14186745882034302, -0.0312572717666626, 0.7165834736099456, 1707435877249094889, 
0.16351449489593506, 0.21630311012268066, 0.5899546330992893, 1707435877259156937, 
-0.022008121013641357, 0.13436591625213623, 0.5805436167402093, 1707435877269214648, 
-0.09348201751708984, 0.2099764347076416, 0.5913894064942852, 1707435877279139067, 
-0.10583740472793579, 0.11636155843734741, 0.5724821337900067, 1707435877289559348, 
-0.4427069425582886, -0.16624653339385986, 0.6333825179936633, 1707435877299139398, 
-0.04597032070159912, 0.0036531686782836914, 0.6195802356730142, 1707435877309133404, 
0.34832221269607544, 0.28425705432891846, 0.5437171202332738, 1707435877320891842, 
0.283048152923584, 0.16943037509918213, 0.8001411021545428, 1707435877329169576, 
0.06506860256195068, 0.14269548654556274, 0.6812054299142428, 1707435877339160625, 
-0.254244327545166, 0.22760266065597534, 0.6774932820518644, 1707435877349222461, 
-0.4073881506919861, 0.21007269620895386, 0.6794499022360921, 1707435877359098674, 
-0.19724738597869873, 0.11253476142883301, 0.6283043607338243, 1707435877369550614, 
0.2479044795036316, -0.0170629620552063, 0.6764121830329712, 1707435877379117437, 
0.2515639662742615, -0.0251615047454834, 0.6433676007262529, 1707435877389124664, 
0.016270339488983154, 0.17914730310440063, 0.48918867910736724, 1707435877402241954, 
-0.2688034772872925, -0.0378229022026062, 0.9279843919163957, 1707435877409089367, 
-0.5404406189918518, -0.0907561182975769, 0.6236669230665508, 1707435877419119318, 
-0.21556025743484497, -0.06743741035461426, 0.6079704499714356, 1707435877429331051, 
0.22171467542648315, 0.0013829469680786133, 0.6290106339061418, 1707435877439270033, 
0.22590839862823486, 0.032559871673583984, 0.611068425767163, 1707435877449650244, 
0.002389848232269287, 0.03970897197723389, 0.6833241446873276, 1707435877459103243, 
-0.3887403607368469, 0.26213908195495605, 0.6505624464929964, 1707435877469164982, 
-0.5157542824745178, 0.1799861192703247, 0.580058358370951, 1707435877480535350, 
-0.37030917406082153, 0.13376426696777344, 0.7544658835988179, 1707435877489137059, 
0.17724978923797607, 0.175853431224823, 0.6491030098494082, 1707435877499156755, 
0.574706494808197, 0.1805209517478943, 0.6567900266065058, 1707435877509237225, 
0.3424302935600281, 0.07951122522354126, 0.6643563721208042, 1707435877519344174, 
-0.15664082765579224, 0.08893442153930664, 0.6108304266022317, 1707435877530327552, 
-0.5434064865112305, -0.06939435005187988, 0.7516807574079167, 1707435877539168264, 
-0.4668881893157959, -0.029445171356201172, 0.6494612285955583, 1707435877549188799, 
0.1581580638885498, 0.02517521381378174, 0.5564128450026959, 1707435877560571223, 
0.7146738171577454, -0.01641833782196045, 0.716107387443473, 1707435877569176640, 
-0.05615812540054321, 0.0906636118888855, 0.6087179949295907, 1707435877589170954, 
-0.21206313371658325, 0.2996545433998108, 0.6149270719895117, 1707435877599124423, 
-0.5386989116668701, 0.0912938117980957, 0.5554184147080876, 1707435877610059881, 
-0.22788363695144653, 0.031071782112121582, 0.6513647703510892, 1707435877619320785, 
0.18006527423858643, 0.13491857051849365, 0.6094972217135736, 1707435877629122371, 
0.38271546363830566, 0.11363357305526733, 0.47027197178625935, 1707435877641621753, 
0.13289517164230347, 0.006743967533111572, 0.7704451034925348, 1707435877649155746, 
-0.24645894765853882, 0.04410207271575928, 0.5719289449468785, 1707435877659353024, 
-0.297751784324646, 0.11276155710220337, 0.5947907478526798, 1707435877669154036, 
-0.4795980453491211, -0.0014854073524475098, 0.5775848760010818, 1707435877679145096, 
-0.1293259859085083, -0.10509335994720459, 0.5396184299898857, 1707435877689654689, 
0.01807117462158203, -0.09545892477035522, 0.5901963972572487, 1707435877699141667, 
0.20346224308013916, 0.07734620571136475, 0.554678781240965, 1707435877709184640, 
-0.026546001434326172, 0.16631639003753662, 0.4252489616869901, 1707435877722277496, 
-0.22188293933868408, 0.14827513694763184, 0.8041153090849846, 1707435877729160426, 
-0.36972105503082275, 0.05435866117477417, 0.545480844092629, 1707435877739245170, 
-0.3621132969856262, -0.02235788106918335, 0.5423436331710162, 1707435877749183109, 
-0.08913660049438477, -0.03823059797286987, 0.5259976211860686, 1707435877759175747, 
0.17923593521118164, 0.019160866737365723, 0.5126897806965894, 1707435877779281384, 
-0.10371953248977661, 0.09485149383544922, 0.5257601529517857, 1707435877789194082, 
-0.15908169746398926, 0.28960728645324707, 0.41269707397948113, 1707435877801941504, 
-0.2711089253425598, 0.21194952726364136, 0.7390452880296023, 1707435877809139400, 
0.025712192058563232, 0.013673663139343262, 0.5382456339761171, 1707435877819173633, 
0.3820539116859436, 0.06259864568710327, 0.530148268947117, 1707435877829460716, 
0.3545578718185425, 0.13061928749084473, 0.5504539732549196, 1707435877839445476, 
0.11674493551254272, -0.01529836654663086, 0.5217578823038401, 1707435877850121878, 
-0.23222261667251587, -0.1060870885848999, 0.6234799146785068, 1707435877859193993, 
0.14121532440185547, 0.2125864028930664, 0.5580985888853247, 1707435877869454603, 
0.2482556700706482, 0.12329334020614624, 0.462886395884796, 1707435877881931961, 
0.014693677425384521, -0.09147340059280396, 0.7770501950506478, 1707435877889384117, 
-0.21133530139923096, -0.0472603440284729, 0.5830861889571987, 1707435877899334505, 
-0.10353726148605347, 0.05466681718826294, 0.5801209438162143, 1707435877909315077, 
0.10533642768859863, 0.08083844184875488, 0.5741178220137757, 1707435877919266842, 
0.005452871322631836, -0.011888384819030762, 0.5381280566560095, 1707435877929838255, 
-0.16036099195480347, 0.12598764896392822, 0.6000980243452253, 1707435877939326670, 
0.06156039237976074, 0.2196279764175415, 0.5643118454559235, 1707435877949254588, 
0.11003154516220093, 0.12673920392990112, 0.4241629892437329, 1707435877961927614, 
0.15413767099380493, -0.044873952865600586, 0.7081992050759776, 1707435877969210088, 
0.10844272375106812, -0.0575559139251709, 0.511729827931529, 1707435877979229906, 
0.06263798475265503, -0.03862506151199341, 0.5215313094269369, 1707435877989235352, 
-0.08321821689605713, 0.007623910903930664, 0.5168505722307745, 1707435877999486484, 
-0.04136461019515991, 0.04715234041213989, 0.5266078027384354, 1707435878009638129, 
0.0009275078773498535, 0.1649843454360962, 0.5638927300376022, 1707435878019147776, 
-0.12887060642242432, 0.1649112105369568, 0.5282757005695319, 1707435878029235716, 
-0.10933101177215576, 0.19455194473266602, 0.3906230732506981, 1707435878042730627, 
-0.09092998504638672, 0.07965356111526489, 0.8003747266090933, 1707435878049251916, 
0.11784160137176514, 0.07346993684768677, 0.5348934011588942, 1707435878059147155, 
-0.12247943878173828, 0.11598789691925049, 0.541297828476208, 1707435878069151210, 
-0.11809974908828735, 0.20974403619766235, 0.5506302942639774, 1707435878079142022, 
-0.11870545148849487, 0.09984183311462402, 0.5287732204669665, 1707435878089677546, 
-0.13469767570495605, -0.0013886094093322754, 0.5920182955790491, 1707435878099160003, 
-0.07968020439147949, -0.02156740427017212, 0.546201040980716, 1707435878109351165, 
0.047437965869903564, -0.04460728168487549, 0.5473647785848498, 1707435878129180552, 
-0.250773549079895, 0.028753340244293213, 0.535672927736099, 1707435878139209275, 
-0.14853304624557495, 0.13608086109161377, 0.5356002962946584, 1707435878149261476, 
-0.06006145477294922, 0.1559755802154541, 0.5389942229454121, 1707435878159181690, 
0.08851426839828491, 0.07603311538696289, 0.4834805193868784, 1707435878170056604, 
-0.03156548738479614, -0.09889084100723267, 0.564378206785844, 1707435878179187086, 
0.15057802200317383, 0.010325253009796143, 0.5042275493362807, 1707435878189186444, 
-0.08403933048248291, -0.04166138172149658, 0.50437487503955, 1707435878209187371, 
-0.037258267402648926, -0.10276955366134644, 0.501453553553289, 1707435878219571975, 
0.08417963981628418, 0.05510979890823364, 0.5417943916687742, 1707435878229282406, 
0.07531946897506714, 0.23012053966522217, 0.531283156191735, 1707435878239195103, 
-0.15155243873596191, 0.07175809144973755, 0.49569457024342795, 1707435878249733201, 
-0.10173290967941284, -0.04253661632537842, 0.5490797461616153, 1707435878259167817, 
0.029821932315826416, 0.022830486297607422, 0.5074258795828005, 1707435878269314850, 
0.11624151468276978, -0.045575082302093506, 0.5096526914209819, 1707435878289204367, 
0.015439987182617188, 0.04636651277542114, 0.4968126718204265, 1707435878299330996, 
-0.10344099998474121, 0.22103440761566162, 0.5097884756762155, 1707435878309209290, 
-0.05673491954803467, 0.1961856484413147, 0.492657308563322, 1707435878319343780, 
0.1603308916091919, 0.031858086585998535, 0.4928377774871735, 1707435878339203509, 
0.13433420658111572, -0.042035460472106934, 0.4668174996187018, 1707435878349432080, 
0.02985149621963501, -0.06324231624603271, 0.3758858667883923, 1707435878362008958, 
-0.11188703775405884, -0.08887428045272827, 0.6675176474987018, 1707435878369161087, 
-0.13638240098953247, 0.12735557556152344, 0.48218694135202106, 1707435878379238162, 
-0.039018988609313965, 0.3081768751144409, 0.4939183338054257, 1707435878389217308, 
-0.07585585117340088, 0.16245418787002563, 0.4961144607620469, 1707435878399206055, 
-0.05448257923126221, 0.005972504615783691, 0.4593129377152246, 1707435878409983525, 
-0.14198803901672363, 0.06814676523208618, 0.5307679708420292, 1707435878419189662, 
0.019325613975524902, 0.1190682053565979, 0.47985736361511483, 1707435878429228322, 
0.11952441930770874, 0.005992531776428223, 0.37550076287332873, 1707435878442056782, 
0.018418848514556885, -0.03560227155685425, 0.6850286337968773, 1707435878449174069, 
-0.14703398942947388, 0.19411659240722656, 0.49916234473435755, 1707435878459208336, 
-0.10652434825897217, 0.27698683738708496, 0.5094100888084525, 1707435878469228279, 
-0.14710092544555664, 0.08475255966186523, 0.5202040405425574, 1707435878479207134, 
-0.22352278232574463, -0.16161787509918213, 0.4840448604197242, 1707435878489997940, 
0.037388503551483154, -0.04224282503128052, 0.5623694835829972, 1707435878499218634, 
0.3521403670310974, 0.11475801467895508, 0.5085333549603137, 1707435878509176549, 
0.29764097929000854, 0.028521060943603516, 0.39798318063518495, 1707435878521608567, 
-0.0405198335647583, -0.031950533390045166, 0.5625645204955321, 1707435878539216382, 
-0.22078490257263184, 0.33314043283462524, 0.5044084951188799, 1707435878549218005, 
-0.16849619150161743, 0.044600844383239746, 0.5056496440797041, 1707435878559300155, 
-0.031368136405944824, -0.09942865371704102, 0.49095552724282776, 1707435878569733785, 
0.20869344472885132, -0.019305527210235596, 0.5294509792830013, 1707435878579291363, 
0.16625940799713135, 0.04048818349838257, 0.5014999231357327, 1707435878589366778, 
0.006876885890960693, -0.07135951519012451, 0.39248051576688786, 1707435878602419111, 
-0.02942556142807007, -0.0317036509513855, 0.7696278483315827, 1707435878609218336, 
0.11851412057876587, 0.18752968311309814, 0.5281308725721175, 1707435878619339779, 
0.17545825242996216, 0.08630406856536865, 0.5335405635442582, 1707435878629279325, 
0.12185251712799072, -0.09296536445617676, 0.5061537957347823, 1707435878639376281, 
0.09690409898757935, 0.04289001226425171, 0.5182649429268193, 1707435878648887221, 
0.07835543155670166, 0.1888633370399475, 0.47096707987829367, 1707435878659218267, 
0.30523616075515747, 0.17017018795013428, 0.47655861257770543, 1707435878669439819, 
0.17890042066574097, -0.010210812091827393, 0.39027270343197124, 1707435878682026851, 
-0.009136080741882324, 0.08754122257232666, 0.7013789648671482, 1707435878689170079, 
-0.061358094215393066, 0.27566081285476685, 0.5016899698821011, 1707435878699377895, 
-0.2501075267791748, 0.08857083320617676, 0.5227812330264303, 1707435878709276484, 
-0.11244356632232666, -0.1706114411354065, 0.5183640677566501, 1707435878719229544, 
-0.027282357215881348, -0.10845905542373657, 0.4640211402735254, 1707435878730119363, 
0.17616087198257446, 0.06809860467910767, 0.5422532713172962, 1707435878739200751, 
0.07972985506057739, 0.19238519668579102, 0.4845385414547446, 1707435878749186889, 
-0.13419395685195923, 0.10432291030883789, 0.3880246644837959, 1707435878761650594, 
-0.33132195472717285, 0.20575398206710815, 0.6478588043042797, 1707435878769152313, 
-0.35659658908843994, 0.18124014139175415, 0.480163384023263, 1707435878779185606, 
-0.2955589294433594, -0.011288702487945557, 0.46922463948266807, 1707435878789247365, 
0.07410341501235962, -0.10406994819641113, 0.4560252676783189, 1707435878799490636, 
0.5591052770614624, 0.0826345682144165, 0.4295102691677467, 1707435878810532526, 
0.2951596975326538, 0.09239369630813599, 0.5648306142330972, 1707435878819192523, 
-0.15703332424163818, 0.184120774269104, 0.49601521241907387, 1707435878829365730, 
-0.3267987370491028, 0.17157918214797974, 0.41914242014752806, 1707435878841696575, 
-0.1366930603981018, 0.1242566704750061, 0.6913372499954384, 1707435878849230471, 
-0.049390971660614014, 0.10340869426727295, 0.5077048188326456, 1707435878859467602, 
0.14540499448776245, 0.027796447277069092, 0.5242265029957655, 1707435878869239456, 
0.2865150570869446, -0.022381842136383057, 0.510885269559579, 1707435878879212853, 
0.12275797128677368, -0.034687340259552, 0.45452232409363835, 1707435878890540930, 
-0.028451919555664062, 0.027542710304260254, 0.5972231995119958, 1707435878899367805, 
-0.046267688274383545, 0.13466030359268188, 0.5332339033570012, 1707435878909414253, 
-0.02681708335876465, 0.029462337493896484, 0.44176727931655985, 1707435878921613799, 
-0.14487618207931519, -0.03617393970489502, 0.6913787802356192, 1707435878929338814, 
0.004117012023925781, 0.014105081558227539, 0.5058286366430692, 1707435878939518445, 
0.2048932909965515, 0.018998265266418457, 0.505752323121095, 1707435878949212928, 
0.2366800308227539, 0.00107496976852417, 0.47599320198115475, 1707435878959175692, 
0.013583540916442871, 0.05250459909439087, 0.47580647069124626, 1707435878979218640, 
0.012357890605926514, 0.1960262656211853, 0.48994497450761504, 1707435878989168165, 
-0.1875665783882141, -0.014265954494476318, 0.3678203708619038, 1707435879002365303, 
-0.18064630031585693, -0.009369134902954102, 0.6982108435793584, 1707435879009203923, 
-0.07046675682067871, 0.1203765869140625, 0.45247665734393944, 1707435879019599922, 
0.22411507368087769, 0.25752902030944824, 0.4861282892607773, 1707435879029213903, 
0.14349818229675293, 0.14698421955108643, 0.4703498389488687, 1707435879039261290, 
-0.10866492986679077, 0.05104541778564453, 0.4609779617057462, 1707435879049754595, 
-0.20553261041641235, 0.23359954357147217, 0.5259568617326932, 1707435879059227420, 
-0.24537384510040283, 0.21451979875564575, 0.5043606737482594, 1707435879069234375, 
-0.07577824592590332, -0.10453635454177856, 0.399832261665531, 1707435879081989262, 
-0.02745962142944336, -0.08933496475219727, 0.6649783556533629, 1707435879089733289, 
0.09804636240005493, 0.008014559745788574, 0.5423115287759417, 1707435879099229165, 
0.07268506288528442, 0.06913268566131592, 0.5104941016235129, 1707435879109334170, 
-0.1457960605621338, 0.03285139799118042, 0.5217263462400302, 1707435879119222101, 
-0.3996526002883911, 0.2821388244628906, 0.5250353439677101, 1707435879139434765, 
-0.4060761332511902, 0.19863760471343994, 0.554599173755868, 1707435879149268808, 
-0.9756151437759399, -0.0322718620300293, 0.5706775518351874, 1707435879169253988, 
-1.0185046195983887, -0.06782138347625732, 0.5793989514018978, 1707435879179303897, 
-0.9589690566062927, -0.09384721517562866, 0.5535448549476254, 1707435879189329186, 
-0.34904760122299194, -0.07791006565093994, 0.5622220148092351, 1707435879198465979, 
-0.2900550365447998, 0.1606597900390625, 0.4091350677167742, 1707435879209935902, 
-0.27427250146865845, 0.038005173206329346, 0.4452819575480607, 1707435879219372571, 
0.024878323078155518, -0.13631296157836914, 0.3712463509171416, 1707435879229372128, 
0.1747179627418518, -0.18441224098205566, 0.2639176049671829, 1707435879241906554, 
0.04344099760055542, -0.2571280598640442, 0.3992512252091074, 1707435879249250771, 
-0.1818050742149353, -0.3669465184211731, 0.2498643343161365, 1707435879259278499, 
-0.2626878619194031, -0.5224794745445251, 0.19696061965776704, 1707435879269392436, 
-0.17583996057510376, -0.4109819531440735, 0.15108823450550093, 1707435879279285366, 
-0.009488701820373535, -0.11473429203033447, 0.10647209026515919, 1707435879289759773, 
-0.03537154197692871, 0.01977074146270752, 0.0914763725571529, 1707435879299257948, 
-0.25257015228271484, 0.011852085590362549, 0.072360892815939, 1707435879309268128, 
-0.4966200590133667, 0.05382782220840454, 0.03880811979067838, 1707435879329227701, 
-0.06437188386917114, 0.1025962233543396, -0.018611037702923782, 1707435879339743704, 
0.034306108951568604, 0.04189741611480713, -0.052216078301606766, 1707435879349338009, 
-0.19733279943466187, -0.059929609298706055, -0.05572149356387425, 1707435879369747224, 
-0.03287690877914429, -0.13270890712738037, -0.05175451634987044, 1707435879379226679, 
0.15117639303207397, -0.16534411907196045, -0.049791192438498166, 1707435879389173300, 
0.2890833616256714, -0.05974102020263672, -0.04653703787813139, 1707435879400617203, 
0.22444885969161987, 0.08529025316238403, -0.06298371261015207, 1707435879409162741, 
0.07037937641143799, 0.14995235204696655, -0.04765904296887757, 1707435879419230490, 
-0.04639214277267456, 0.11906516551971436, -0.035986816488465356, 1707435879429295015, 
0.06800031661987305, 0.1438535451889038, -0.020836867030682014, 1707435879439218247, 
0.18197131156921387, 0.17819029092788696, -0.004113960862869908, 1707435879450403367, 
0.16137945652008057, 0.07044607400894165, 0.009535336622928235, 1707435879459632767, 
0.1115533709526062, -0.020920157432556152, 0.015232662715683019, 1707435879469233176, 
-0.1364242434501648, -0.02614891529083252, 0.012772033758194143, 1707435879489218791, 
-0.06607145071029663, -0.029687941074371338, 0.004484296450003556, 1707435879499227499, 
0.000916898250579834, -0.03143274784088135, -0.000863928485875384, 1707435879509231554, 
-0.03684264421463013, 0.006409823894500732, -0.005107542634037285, 1707435879519331870, 
-0.07132977247238159, 0.055123209953308105, -0.004868305978822507, 1707435879529934595, 
-0.02877110242843628, 0.02630704641342163, -0.0038300869442140888, 1707435879539225213, 
0.013946771621704102, 0.0029585957527160645, -0.00355418651920014, 1707435879549245424, 
0.07138276100158691, 0.008446931838989258, -0.002649458490674224, 1707435879562676102, 
0.07291346788406372, -0.00804966688156128, -0.005211456247176536, 1707435879569487000, 
0.07099616527557373, 0.03508937358856201, -0.004111218073712885, 1707435879579432664, 
-0.009799301624298096, 0.0530739426612854, -0.00359927852571311, 1707435879589294241, 
-0.01320195198059082, 0.0728381872177124, 0.0001981842795019695, 1707435879599218875, 
0.05149829387664795, 0.024392008781433105, 0.0036141652465873676, 1707435879610128277, 
0.004800915718078613, -0.006006062030792236, 0.003147616063026885, 1707435879619227235, 
-0.018786370754241943, 0.00999438762664795, -0.0008743080437378293, 1707435879629214792, 
0.0007002353668212891, 0.00631868839263916, -0.002256596598437818, 1707435879642619688, 
0.0007012486457824707, 0.026059329509735107, -0.004589556216468673, 1707435879649178132, 
0.004440188407897949, 0.008194446563720703, -0.0019308873971937864, 1707435879659210583, 
0.022471964359283447, -0.018737077713012695, 0.000199760057208812, 1707435879669206369, 
0.05497080087661743, 0.006281435489654541, 0.001266861333890888, 1707435879679227875, 
0.01929384469985962, 0.006241977214813232, 0.0007083992501564573, 1707435879689703311, 
-0.025194108486175537, 0.03331279754638672, 0.000779708509075462, 1707435879699220707, 
0.010813713073730469, 0.06547117233276367, 0.0017962865219714316, 1707435879709241746, 
-0.007162630558013916, 0.00790482759475708, 0.0009950421125116925, 1707435879722000796, 
-0.017847895622253418, 0.016976773738861084, -0.00046964572269771654, 1707435879729234923, 
0.02891087532043457, 0.002654731273651123, -0.0003355859840460045, 1707435879739270129, 
0.034307897090911865, 0.000830531120300293, -0.0014092342543757421, 1707435879749294235, 
0.04701566696166992, 0.0370863676071167, -0.002497741709912603, 1707435879759221416, 
0.01098865270614624, 0.017264187335968018, -0.0012930566983692143, 1707435879770123103, 
0.02562534809112549, 0.011967837810516357, 0.0002149465051464705, 1707435879779274242, 
0.03849303722381592, 0.015261828899383545, 0.000729982149073444, 1707435879789481109, 
-0.018390238285064697, 0.0028487443923950195, 0.0006053752838806174, 1707435879801690064, 
0.003269970417022705, 0.008125364780426025, 0.0024004851376346523, 1707435879809201194, 
-0.02002584934234619, 0.02435016632080078, 0.0012565660955936018, 1707435879819304752, 
-0.04161226749420166, 0.020715832710266113, 0.0001952201622232538, 1707435879829380237, 
0.008512496948242188, 0.022452175617218018, 0.0007145363609945343, 1707435879839556968, 
0.024287283420562744, 0.014959156513214111, -0.000866901776022866, 1707435879849767400, 
0.0313604474067688, 0.031142771244049072, -0.002626922420872838, 1707435879859206448, 
0.041936516761779785, 0.022052288055419922, -0.0014095459395866937, 1707435879869207271, 
0.08679115772247314, 0.02032148838043213, 0.0023036387671874327, 1707435879881678600, 
0.19613116979599, 0.07070976495742798, 0.017303527611114006, 1707435879889191397, 
0.48592138290405273, 0.12321984767913818, 0.046438191430023784, 1707435879899256885, 
0.7908409237861633, 0.36298859119415283, 0.12070887744415718, 1707435879909267524, 
0.5266672372817993, 0.524361252784729, 0.21321324853136212, 1707435879919210677, 
0.24119412899017334, 0.2640075087547302, 0.2722151096420686, 1707435879929655045, 
0.7099385261535645, 0.13288229703903198, 0.34499453745177944, 1707435879939246992, 
1.1999272108078003, 0.4136170744895935, 0.36801908085906887, 1707435879949270573, 
1.5154982805252075, 0.6574091911315918, 0.30831193786267513, 1707435879962127228, 
1.0105732679367065, 0.3288153409957886, 0.5562376408421918, 1707435879969221214, 
0.2394864559173584, -0.09297651052474976, 0.3822054016817392, 1707435879979262013, 
0.276854932308197, 0.0841449499130249, 0.39222407570883766, 1707435879989293977, 
0.5549927353858948, 0.230665385723114, 0.411909772733673, 1707435879999549109, 
0.7556875348091125, -0.03836113214492798, 0.42915417433939423, 1707435880010077241, 
0.5997524261474609, -0.4062824845314026, 0.5205701802132296, 1707435880019216310, 
0.3448612689971924, -0.3280305862426758, 0.48720153690978607, 1707435880029376126, 
0.07182049751281738, -0.015957176685333252, 0.406644490460353, 1707435880041967227, 
0.21214056015014648, 0.20761531591415405, 0.7238239714531741, 1707435880049192254, 
0.49926286935806274, 0.2361661195755005, 0.5343307855824752, 1707435880059229081, 
0.15129178762435913, 0.27065497636795044, 0.5468703403499607, 1707435880069201654, 
0.012387752532958984, 0.3108043074607849, 0.5376698101961421, 1707435880079386013, 
-0.07987451553344727, 0.41545504331588745, 0.5058530968705627, 1707435880090153566, 
-0.2637362480163574, 0.32467496395111084, 0.605634468517206, 1707435880099203115, 
-0.13393068313598633, 0.1004108190536499, 0.5435469488937746, 1707435880109405115, 
-0.2981075644493103, 0.09817689657211304, 0.4427613570475699, 1707435880122088242, 
-0.2969982624053955, 0.10970485210418701, 0.7814263433478551, 1707435880129244151, 
-0.21139878034591675, 0.02059805393218994, 0.5480422283587144, 1707435880139270547, 
-0.11642646789550781, 0.007755875587463379, 0.5422941085442553, 1707435880149238692, 
-0.035321056842803955, -0.105732262134552, 0.5278876344693966, 1707435880159345759, 
-0.10334289073944092, -0.07812583446502686, 0.51362359926366, 1707435880169733379, 
-0.20866328477859497, 0.02027982473373413, 0.5622467342812763, 1707435880179269944, 
-0.2230265736579895, 0.04147619009017944, 0.538778517528917, 1707435880189251675, 
-0.084408700466156, -0.06708604097366333, 0.4162140191909829, 1707435880202006395, 
-0.12596100568771362, -0.2410053014755249, 0.7127493339192607, 1707435880209221769, 
0.24550074338912964, 0.040421247482299805, 0.48954792041335815, 1707435880219290750, 
0.046838223934173584, 0.1651729941368103, 0.47544713958241874, 1707435880229309709, 
-0.1117357611656189, 0.034243643283843994, 0.4736959457400335, 1707435880239263519, 
-0.0519065260887146, 0.10240161418914795, 0.4522380811876263, 1707435880249689759, 
0.14106500148773193, 0.2350308895111084, 0.48995584875870374, 1707435880259237224, 
0.01925790309906006, 0.09063458442687988, 0.45892550814420674, 1707435880269220096, 
0.06282204389572144, -0.09670311212539673, 0.3483261517044793, 1707435880282084695, 
0.23425817489624023, -0.1056714653968811, 0.6261217181929688, 1707435880289221485, 
0.15342354774475098, -0.022760391235351562, 0.45185350585305356, 1707435880299266681, 
0.047733962535858154, 0.07100951671600342, 0.46700035295966363, 1707435880309202272, 
-0.08823466300964355, 0.13082611560821533, 0.4751073406757407, 1707435880319228525, 
-0.012599766254425049, 0.3059784173965454, 0.4630860943029512, 1707435880329700146, 
0.011897623538970947, 0.2644851803779602, 0.5140695921632062, 1707435880339249865, 
0.02378225326538086, 0.16976618766784668, 0.49113648595365783, 1707435880349282626, 
0.03048717975616455, 0.12045198678970337, 0.3957419749502785, 1707435880361677037, 
-0.020489871501922607, 0.024797797203063965, 0.654650715539273, 1707435880369227928, 
0.006204009056091309, 0.034523069858551025, 0.4966817192846527, 1707435880379302164, 
-0.06349873542785645, 0.22691559791564941, 0.50834785124562, 1707435880389250249, 
-0.13604801893234253, 0.23277902603149414, 0.5045995822949487, 1707435880399334972, 
-0.14352500438690186, 0.028174638748168945, 0.4576081012330851, 1707435880410421826, 
-0.06029468774795532, -0.08814030885696411, 0.5703274603394279, 1707435880419262075, 
0.1724560260772705, -0.05608689785003662, 0.5019584476695906, 1707435880429274345, 
0.2216518521308899, -0.11793661117553711, 0.3957872477601892, 1707435880441999865, 
0.10402429103851318, -0.0004976391792297363, 0.7006433025573295, 1707435880449249052, 
0.02892756462097168, 0.05569648742675781, 0.5081366235638096, 1707435880459295723, 
0.05709576606750488, 0.08666855096817017, 0.5100488775856228, 1707435880469316188, 
0.06189167499542236, 0.02967989444732666, 0.5076702529959558, 1707435880479320548, 
0.12518280744552612, 0.11753380298614502, 0.4776154986557224, 1707435880489775616, 
0.11093652248382568, 0.06646955013275146, 0.5152849201678085, 1707435880499393736, 
-0.009614229202270508, 0.16382747888565063, 0.5029260277099739, 1707435880509321094, 
-0.10917973518371582, 0.3296615481376648, 0.4032208542449355, 1707435880521799134, 
-0.06737339496612549, 0.152155339717865, 0.709753124915851, 1707435880528887083, 
-0.19404089450836182, -0.01715463399887085, 0.4758745060691993, 1707435880539519827, 
-0.2639891505241394, -0.1357620358467102, 0.5079513618203397, 1707435880549528521, 
0.021783113479614258, -0.08417832851409912, 0.5069797286166409, 1707435880559546736, 
0.13538795709609985, -0.042307496070861816, 0.4407223957800343, 1707435880571021465, 
0.20816975831985474, 0.10711592435836792, 0.6045761453086306, 1707435880579371984, 
-0.02735722064971924, 0.08963662385940552, 0.5060309231575889, 1707435880589439921, 
-0.32064247131347656, 0.03123229742050171, 0.3931158956288693, 1707435880602411700, 
-0.2594069242477417, 0.06895309686660767, 0.7321377023029201, 1707435880609311211, 
-0.19839352369308472, -0.007516324520111084, 0.49337341340061763, 1707435880619411068, 
0.23741626739501953, 0.027697205543518066, 0.49646301779820223, 1707435880629340858, 
0.33453452587127686, 0.01019752025604248, 0.49405251764245584, 1707435880639351945, 
0.08185333013534546, 0.14884614944458008, 0.48104638885378265, 1707435880649755600, 
-0.32505327463150024, 0.11919212341308594, 0.5291267002139779, 1707435880659268551, 
-0.28060030937194824, -0.02280634641647339, 0.48798162886188223, 1707435880669486447, 
0.022552430629730225, 0.05785435438156128, 0.3813479832007036, 1707435880682324531, 
0.11462271213531494, 0.10829675197601318, 0.7024300084343346, 1707435880689235291, 
0.47864794731140137, 0.0014494657516479492, 0.48820886749307435, 1707435880699277203, 
0.41646695137023926, 0.1409841775894165, 0.5106519165635591, 1707435880709224092, 
-0.09386509656906128, 0.23400449752807617, 0.5271466291574399, 1707435880719224140, 
-0.2551499009132385, 0.1606825590133667, 0.48980550975771014, 1707435880730149490, 
-0.23889672756195068, 0.0005325675010681152, 0.5850060287454898, 1707435880739288274, 
-0.06121206283569336, 0.09237533807754517, 0.5304143918400892, 1707435880749217739, 
0.11873757839202881, 0.1350957751274109, 0.4029768993477036, 1707435880762023152, 
0.24029505252838135, 0.09429287910461426, 0.7083104991870277, 1707435880769201713, 
0.0727684497833252, 0.0993843674659729, 0.5090702257625601, 1707435880779271249, 
-0.26375091075897217, 0.22961819171905518, 0.5218434964728419, 1707435880789295735, 
-0.3795430064201355, 0.003686964511871338, 0.5283072732654628, 1707435880799265762, 
-0.2450917363166809, -0.14931589365005493, 0.5031735949413789, 1707435880809741553, 
0.11386293172836304, -0.12072998285293579, 0.5475947711894489, 1707435880819271648, 
0.3032979369163513, -0.033126890659332275, 0.5100224778521761, 1707435880829293699, 
0.275084912776947, 0.026142477989196777, 0.3955015540578567, 1707435880842043296, 
-0.18663477897644043, 0.03497880697250366, 0.7000143023238263, 1707435880849242309, 
-0.3533262014389038, 0.023467540740966797, 0.5001814225870365, 1707435880859297181, 
-0.03772234916687012, 0.04104095697402954, 0.49182953107653166, 1707435880869306759, 
0.33078670501708984, 0.034201204776763916, 0.4712482354766353, 1707435880879313527, 
0.5084742903709412, 0.14249467849731445, 0.44056922521708813, 1707435880889738973, 
0.5353133678436279, 0.12813419103622437, 0.49076496210719706, 1707435880899261725, 
0.0874972939491272, 0.2589282989501953, 0.4850576279620302, 1707435880909258142, 
-0.37818825244903564, 0.25724679231643677, 0.38760097283983896, 1707435880922157200, 
-0.48373764753341675, 0.024706482887268066, 0.7123153930683187, 1707435880929239155, 
-0.11464953422546387, -0.05246591567993164, 0.5043430285516984, 1707435880939301693, 
0.2803107500076294, 0.15874040126800537, 0.5107848580099044, 1707435880949317737, 
0.24261772632598877, 0.08127903938293457, 0.5037732669859153, 1707435880959550378, 
0.008352160453796387, -0.026926517486572266, 0.5113546727690297, 1707435880969744904, 
-0.06389611959457397, 0.14176082611083984, 0.5536020859230653, 1707435880979286161, 
-0.4228435754776001, 0.11649614572525024, 0.529599040698421, 1707435880989338025, 
-0.26663750410079956, 0.053195297718048096, 0.4176797789324416, 1707435881002053847, 
-0.2080763578414917, -0.04810512065887451, 0.7306176209348418, 1707435881009232262, 
0.11388516426086426, 0.0024019479751586914, 0.5166270585270181, 1707435881019236834, 
0.338874876499176, 0.002378225326538086, 0.5070861827760722, 1707435881029349359, 
0.09001249074935913, 0.05509448051452637, 0.5128461533948598, 1707435881039327546, 
-0.07390666007995605, 2.956390380859375e-05, 0.49441006797018067, 1707435881069273597, 
0.45609384775161743, 0.07438099384307861, 0.3822797397977654, 1707435881081729459, 
0.1459844708442688, 0.18229156732559204, 0.46147793237925616, 1707435881099309865, 
-0.19176793098449707, 0.3666476607322693, 0.47611920715959416, 1707435881109311151, 
-0.39148497581481934, 0.17215269804000854, 0.48359409481358495, 1707435881119290037, 
-0.3943867087364197, 0.008134782314300537, 0.4490815664937419, 1707435881130156193, 
-0.10390216112136841, 0.004027843475341797, 0.5445500702690179, 1707435881139277652, 
0.4445611834526062, 0.06738036870956421, 0.5029675051982078, 1707435881149399154, 
0.4316255450248718, 0.0969424843788147, 0.4120636591806639, 1707435881162089950, 
-0.1364603042602539, 0.08887141942977905, 0.747818414337073, 1707435881169216284, 
-0.23028063774108887, 0.14486628770828247, 0.5407258391432052, 1707435881179279876, 
-0.4038527011871338, 0.10160845518112183, 0.5480347726371384, 1707435881189258682, 
0.0698593258857727, 0.13438183069229126, 0.539277448900713, 1707435881199273648, 
0.3396468758583069, -0.011892974376678467, 0.49821154569003917, 1707435881209782145, 
0.3262932300567627, -0.0572199821472168, 0.5350996153451748, 1707435881219256421, 
-0.23883473873138428, 0.004875838756561279, 0.38025404226183024, 1707435881242450987, 
-0.2776060700416565, -0.1018301248550415, 0.7211411689779493, 1707435881249271047, 
-0.22350960969924927, -0.16631853580474854, 0.4859579538157157, 1707435881259305241, 
0.07092326879501343, -0.003066420555114746, 0.4755514747788697, 1707435881269312861, 
0.24174940586090088, 0.14140987396240234, 0.4620776927511707, 1707435881279322073, 
0.2994086742401123, 0.3002840280532837, 0.4325916180426459, 1707435881289849531, 
-0.3149852752685547, 0.2795611619949341, 0.4928160516763919, 1707435881299197666, 
-0.612448513507843, 0.2578718662261963, 0.46576068842532925, 1707435881309260334, 
-0.30106890201568604, 0.1850285530090332, 0.37031286128568985, 1707435881322064331, 
0.09069126844406128, -0.05077856779098511, 0.6712973221050241, 1707435881329282356, 
0.40270745754241943, -0.029720664024353027, 0.4973742934966259, 1707435881339323784, 
0.17955631017684937, 0.05718356370925903, 0.5129600734527647, 1707435881349319209, 
-0.009627997875213623, 0.20768535137176514, 0.5279295122386548, 1707435881359313653, 
-0.11022341251373291, 0.1904674768447876, 0.49438172453982004, 1707435881370170773, 
-0.007852256298065186, -0.05564600229263306, 0.5878481097973445, 1707435881379310590, 
0.24643832445144653, -0.07756364345550537, 0.5359931066940373, 1707435881389266380, 
0.27057474851608276, -0.004286706447601318, 0.4107660209471848, 1707435881402077657, 
0.1194148063659668, -0.049969494342803955, 0.7219241813337363, 1707435881409228975, 
-0.21119296550750732, 0.019053280353546143, 0.5018233137046552, 1707435881419338255, 
-0.14075195789337158, 0.0986776351928711, 0.4848662360014786, 1707435881429481236, 
0.08761215209960938, 0.16801196336746216, 0.4789906524666442, 1707435881439315821, 
0.21897774934768677, 0.06609225273132324, 0.433578175406959, 1707435881449766958, 
0.0058852434158325195, -0.1038583517074585, 0.47073749836039824, 1707435881459282437, 
-0.07226753234863281, -0.002804577350616455, 0.44099615444947743, 1707435881469539938, 
-0.169194757938385, 0.23846089839935303, 0.37873186313585694, 1707435881481822946, 
-0.13950181007385254, 0.3017212152481079, 0.636543200930954, 1707435881489313158, 
-0.004165530204772949, 0.14363455772399902, 0.4889358014968142, 1707435881499331477, 
0.13762861490249634, 0.08372366428375244, 0.5007029026858211, 1707435881509348846, 
0.20213568210601807, 0.16039109230041504, 0.51121770948974, 1707435881519296371, 
0.18219101428985596, 0.04605972766876221, 0.4885051511713551, 1707435881529726663, 
-0.13461899757385254, 0.04674065113067627, 0.527662412334145, 1707435881539402238, 
-0.07993960380554199, 0.10345035791397095, 0.5126566140075149, 1707435881549276973, 
-0.17985016107559204, 0.15164828300476074, 0.3827385926449623, 1707435881562219089, 
-0.12753140926361084, -0.022983074188232422, 0.6900980113497475, 1707435881569264128, 
0.22216999530792236, -0.05709981918334961, 0.4857459277021864, 1707435881579269452, 
0.11645257472991943, -0.17640793323516846, 0.48448068343081124, 1707435881589432180, 
0.0018680691719055176, 0.007572829723358154, 0.5019391799472319, 1707435881599304362, 
-0.22205328941345215, -0.019982516765594482, 0.46950239314735087, 1707435881609732778, 
-0.1698317527770996, 0.08765959739685059, 0.506052387227063, 1707435881619242985, 
-0.08835029602050781, 0.0886160135269165, 0.47725170418148727, 1707435881629288372, 
0.1801428198814392, 0.09747433662414551, 0.38246942578609083, 1707435881642062873, 
0.29672640562057495, 0.14347076416015625, 0.694252175738205, 1707435881649257920, 
0.06744498014450073, 0.2368156909942627, 0.5128135580325749, 1707435881659256090, 
-0.0589178204536438, 0.27021920680999756, 0.5208630264044287, 1707435881669270934, 
-0.152998149394989, 0.3698558211326599, 0.5222247323626553, 1707435881679336599, 
-0.05841320753097534, 0.18432694673538208, 0.471650509815057, 1707435881690479944, 
-0.002162635326385498, 0.02998638153076172, 0.5945143364612638, 1707435881699293202, 
0.05934572219848633, -0.037362873554229736, 0.5185795678637192, 1707435881709314335, 
0.09962493181228638, -0.040301620960235596, 0.41664854346241187, 1707435881721777654, 
0.038158953189849854, 0.028536856174468994, 0.67981783012146, 1707435881729308277, 
-0.021808743476867676, -0.03192383050918579, 0.5015480246855641, 1707435881739348258, 
0.012163639068603516, -0.02398848533630371, 0.4931879775151111, 1707435881749340761, 
0.0807456374168396, -0.09324228763580322, 0.4849013535777913, 1707435881759318270, 
0.22630023956298828, -0.0706479549407959, 0.4550630694818826, 1707435881769809977, 
0.19396638870239258, -0.12204355001449585, 0.4880653402687372, 1707435881779482839, 
0.18045437335968018, -0.03318905830383301, 0.47589467673727504, 1707435881789312273, 
0.15400946140289307, 0.15797317028045654, 0.3644803959149189, 1707435881802113814, 
-0.16299831867218018, 0.2432984709739685, 0.6453408768692918, 1707435881809311923, 
-0.28142744302749634, 0.12848752737045288, 0.46400568378552776, 1707435881819382291, 
-0.4436842203140259, 0.21216332912445068, 0.46793098058120586, 1707435881829621043, 
-0.08070731163024902, 0.3338813781738281, 0.5121231518146613, 1707435881839374702, 
-0.09832978248596191, 0.13981562852859497, 0.5544396666664946, 1707435881848853474, 
-0.381858766078949, 0.04613214731216431, 0.5136019260360799, 1707435881859522308, 
-0.4166792035102844, -0.10888755321502686, 0.5622447708483277, 1707435881869484540, 
-0.5701537728309631, -0.03548222780227661, 0.4447627005704244, 1707435881882199468, 
-0.06537729501724243, 0.1396467685699463, 0.7887155800165325, 1707435881889418686, 
0.9861929416656494, 0.1845228672027588, 0.5714458834470597, 1707435881899371418, 
0.7176492214202881, -0.1043124794960022, 0.5423513775039185, 1707435881909548622, 
0.16114532947540283, -0.09272658824920654, 0.5476552924539602, 1707435881919350407, 
-0.13684391975402832, -0.04886353015899658, 0.4983385809729909, 1707435881929807321, 
0.4260801076889038, -0.16227489709854126, 0.3801791206972621, 1707435881961835726, 
0.31277602910995483, 0.022597551345825195, 0.639017421139502, 1707435881969333142, 
-0.4031866788864136, 0.23232632875442505, 0.4953081654367977, 1707435881979337228, 
-0.4725685119628906, 0.15964484214782715, 0.4969084332168269, 1707435881989425252, 
-0.541715681552887, 0.0979185700416565, 0.503333830010658, 1707435881999302773, 
0.008475005626678467, 0.1679186224937439, 0.4480552654943503, 1707435882010240457, 
0.43892067670822144, 0.2686774730682373, 0.5386264593869327, 1707435882019287737, 
0.13738864660263062, 0.1258087158203125, 0.481180291441792, 1707435882029457748, 
0.012519598007202148, 0.08910679817199707, 0.4355186400176227, 1707435882040895665, 
-0.5185264945030212, -0.092845618724823, 0.604315351755643, 1707435882049260940, 
-0.5331088304519653, -0.13714897632598877, 0.5037432458969376, 1707435882059289005, 
0.0434306263923645, 0.027190804481506348, 0.49412283225137443, 1707435882069396595, 
0.7282658815383911, 0.1279500126838684, 0.5013159495129611, 1707435882079286718, 
0.45402073860168457, -0.048828125, 0.4769066398079252, 1707435882089759110, 
-0.1693996787071228, -0.06675589084625244, 0.5335705033116604, 1707435882099276607, 
-0.3745059370994568, 0.07501447200775146, 0.5091176257051941, 1707435882109282471, 
-0.32737070322036743, 0.21317601203918457, 0.39409769952815216, 1707435882121829982, 
0.3469833731651306, 0.25639915466308594, 0.6286620661289161, 1707435882129337126, 
0.7265750765800476, 0.16586440801620483, 0.46969604480865623, 1707435882139350311, 
0.2738252878189087, 0.2210463285446167, 0.49010852667946514, 1707435882149341864, 
-0.20009654760360718, 0.2446434497833252, 0.515747090379805, 1707435882159320374, 
-0.3894917964935303, 0.0834360122680664, 0.5013751695906705, 1707435882169820214, 
-0.4228522777557373, -0.12789291143417358, 0.5521382094140446, 1707435882179318330, 
-0.10284686088562012, -0.005511105060577393, 0.5230534122521601, 1707435882189305125, 
0.09187304973602295, 0.1615145206451416, 0.4044084383991307, 1707435882202254278, 
0.2331809401512146, 0.02625828981399536, 0.7480877669546808, 1707435882209321732, 
0.09105527400970459, -0.11063170433044434, 0.5370128256090745, 1707435882219346802, 
-0.3701375126838684, -0.1943960189819336, 0.5409392368844702, 1707435882229395351, 
-0.25053149461746216, 0.06525176763534546, 0.539011815022925, 1707435882239359231, 
0.04794204235076904, 0.2711167335510254, 0.4803411198474819, 1707435882250170785, 
0.3418058753013611, 0.08826333284378052, 0.5459962428352928, 1707435882259259506, 
0.2593107223510742, -0.04035133123397827, 0.46656567979759017, 1707435882269552127, 
-0.013557493686676025, 0.14868581295013428, 0.3904892921606935, 1707435882281812960, 
